# OpenSignals Text File Format
# {"00:07:80:4D:2E:5B":{"sensor":["gACCx","gACCy","gACCz"],"device name":"00:07:80:4D:2E:5B","column":["nSeq","DI","gACCx","gACCy","gACCz"],"sync interval":2,"time":"05:26:47","comments":"","keywords":"","device connection":"BTH00:07:80:4D:2E:5B","channels":[1,2,3],"date":"2024-10-17","mode":0,"digital IO":[0,1],"firmware version":775,"device":"biosignalsplux","position":0,"sampling rate":1000,"label":["gACCx","gACCy","gACCz"],"resolution":[16,16,16],"special":[{},{},{}],"sleeve color":["UNKNOWN","UNKNOWN","UNKNOWN"]}}
# EndOfHeader
0	0	33592	27444	32292
1	0	33580	27444	32296
2	0	33592	27468	32308
3	0	33576	27504	32304
4	0	33584	27516	32312
5	0	33604	27516	32320
6	0	33624	27528	32304
7	0	33601	27552	32285
8	0	33600	27552	32280
9	0	33612	27552	32280
10	0	33624	27552	32272
11	0	33620	27560	32296
12	0	33612	27556	32272
13	0	33608	27552	32276
14	0	33592	27544	32292
15	0	33600	27536	32292
16	0	33600	27540	32300
17	0	33624	27532	32304
18	0	33616	27520	32321
19	0	33624	27521	32328
20	0	33640	27516	32340
21	0	33656	27521	32340
22	0	33648	27512	32356
23	0	33676	27536	32361
24	0	33672	27536	32388
25	0	33692	27524	32396
26	0	33672	27544	32408
27	0	33696	27532	32415
28	0	33704	27540	32432
29	0	33696	27564	32436
30	0	33665	27552	32436
31	0	33656	27548	32456
32	0	33608	27556	32464
33	0	33656	27560	32452
34	0	33676	27576	32452
35	0	33656	27578	32461
36	0	33672	27564	32444
37	0	33760	27568	32408
38	0	33760	27600	32431
39	0	33692	27600	32468
40	0	33640	27584	32469
41	0	33616	27592	32468
42	0	33608	27620	32496
43	0	33504	27644	32512
44	0	33484	27648	32488
45	0	33516	27656	32496
46	0	33496	27676	32508
47	0	33536	27673	32504
48	0	33561	27660	32504
49	0	33608	27656	32492
50	0	33656	27644	32484
51	0	33636	27632	32500
52	0	33641	27620	32484
53	0	33624	27625	32506
54	0	33612	27609	32500
55	0	33624	27612	32512
56	0	33600	27616	32544
57	0	33616	27632	32548
58	0	33664	27650	32548
59	0	33688	27665	32544
60	0	33688	27648	32540
61	0	33684	27634	32544
62	0	33672	27616	32552
63	0	33616	27598	32572
64	0	33616	27594	32593
65	0	33600	27600	32600
66	0	33608	27612	32596
67	0	33616	27626	32588
68	0	33636	27632	32584
69	0	33672	27648	32572
70	0	33692	27656	32573
71	0	33696	27664	32569
72	0	33704	27656	32596
73	0	33712	27644	32584
74	0	33716	27640	32596
75	0	33712	27652	32608
76	0	33688	27648	32588
77	0	33696	27641	32600
78	0	33700	27642	32592
79	0	33704	27652	32580
80	0	33696	27652	32584
81	0	33688	27648	32576
82	0	33668	27624	32572
83	0	33680	27626	32552
84	0	33676	27628	32550
85	0	33664	27604	32532
86	0	33665	27598	32524
87	0	33672	27597	32504
88	0	33660	27604	32476
89	0	33656	27604	32456
90	0	33624	27612	32436
91	0	33632	27600	32416
92	0	33632	27597	32417
93	0	33656	27608	32408
94	0	33632	27604	32404
95	0	33644	27596	32384
96	0	33656	27609	32352
97	0	33672	27604	32336
98	0	33668	27590	32328
99	0	33660	27576	32328
100	0	33664	27577	32324
101	0	33644	27576	32324
102	0	33624	27589	32292
103	0	33608	27590	32284
104	0	33620	27588	32284
105	0	33608	27592	32288
106	0	33616	27600	32288
107	0	33625	27600	32280
108	0	33620	27600	32296
109	0	33632	27601	32288
110	0	33624	27616	32264
111	0	33624	27608	32264
112	0	33600	27598	32264
113	0	33592	27576	32276
114	0	33600	27568	32269
115	0	33608	27556	32268
116	0	33612	27552	32284
117	0	33632	27544	32288
118	0	33612	27540	32272
119	0	33604	27548	32276
120	0	33624	27536	32288
121	0	33600	27541	32288
122	0	33616	27548	32292
123	0	33608	27568	32280
124	0	33620	27560	32300
125	0	33600	27568	32300
126	0	33600	27585	32292
127	0	33616	27606	32308
128	0	33624	27612	32312
129	0	33624	27632	32345
130	0	33632	27648	32352
131	0	33621	27652	32352
132	0	33620	27644	32348
133	0	33600	27624	32340
134	0	33620	27632	32340
135	0	33608	27610	32344
136	0	33608	27604	32340
137	0	33632	27604	32348
138	0	33592	27604	32352
139	0	33584	27601	32376
140	0	33572	27620	32384
141	0	33576	27624	32376
142	0	33600	27644	32388
143	0	33600	27660	32404
144	0	33584	27668	32428
145	0	33576	27681	32424
146	0	33572	27692	32432
147	0	33585	27704	32440
148	0	33600	27712	32464
149	0	33600	27708	32476
150	0	33624	27708	32480
151	0	33612	27704	32488
152	0	33600	27712	32480
153	0	33608	27696	32476
154	0	33624	27692	32472
155	0	33644	27680	32472
156	0	33648	27680	32480
157	0	33644	27676	32480
158	0	33656	27672	32480
159	0	33652	27656	32484
160	0	33664	27668	32476
161	0	33676	27700	32480
162	0	33688	27692	32496
163	0	33688	27676	32504
164	0	33684	27670	32516
165	0	33692	27664	32524
166	0	33700	27672	32528
167	0	33704	27668	32546
168	0	33700	27681	32540
169	0	33696	27681	32540
170	0	33672	27693	32556
171	0	33684	27688	32572
172	0	33704	27688	32572
173	0	33696	27688	32580
174	0	33712	27688	32576
175	0	33716	27696	32580
176	0	33693	27696	32585
177	0	33708	27684	32584
178	0	33696	27681	32569
179	0	33696	27672	32580
180	0	33704	27662	32568
181	0	33708	27656	32564
182	0	33692	27662	32536
183	0	33692	27656	32532
184	0	33708	27654	32524
185	0	33692	27668	32528
186	0	33696	27657	32532
187	0	33688	27660	32532
188	0	33696	27648	32520
189	0	33720	27664	32516
190	0	33724	27656	32544
191	0	33712	27656	32532
192	0	33684	27656	32536
193	0	33684	27634	32516
194	0	33680	27640	32488
195	0	33692	27632	32481
196	0	33692	27620	32464
197	0	33700	27624	32444
198	0	33696	27636	32437
199	0	33684	27644	32420
200	0	33688	27644	32420
201	0	33672	27644	32388
202	0	33672	27632	32372
203	0	33672	27624	32352
204	0	33652	27612	32348
205	0	33632	27612	32320
206	0	33628	27597	32296
207	0	33604	27573	32296
208	0	33580	27548	32276
209	0	33556	27540	32264
210	0	33572	27560	32272
211	0	33580	27572	32276
212	0	33572	27562	32276
213	0	33576	27548	32300
214	0	33592	27544	32308
215	0	33604	27544	32329
216	0	33628	27536	32341
217	0	33640	27532	32341
218	0	33640	27512	32344
219	0	33660	27512	32349
220	0	33664	27509	32356
221	0	33680	27500	32352
222	0	33668	27488	32356
223	0	33672	27492	32352
224	0	33684	27472	32344
225	0	33680	27453	32348
226	0	33672	27445	32348
227	0	33676	27444	32348
228	0	33672	27448	32352
229	0	33672	27452	32356
230	0	33664	27460	32361
231	0	33661	27472	32380
232	0	33640	27484	32376
233	0	33656	27496	32384
234	0	33656	27516	32404
235	0	33672	27534	32416
236	0	33672	27532	32420
237	0	33676	27548	32420
238	0	33656	27541	32432
239	0	33648	27548	32432
240	0	33648	27556	32432
241	0	33664	27549	32429
242	0	33668	27544	32424
243	0	33664	27544	32430
244	0	33656	27549	32444
245	0	33660	27552	32448
246	0	33668	27548	32448
247	0	33668	27564	32460
248	0	33684	27568	32468
249	0	33692	27580	32468
250	0	33688	27590	32488
251	0	33688	27584	32500
252	0	33676	27596	32504
253	0	33668	27592	32508
254	0	33672	27592	32517
255	0	33688	27609	32532
256	0	33684	27610	32548
257	0	33692	27616	32553
258	0	33696	27616	32560
259	0	33696	27624	32556
260	0	33696	27612	32544
261	0	33692	27605	32528
262	0	33676	27600	32540
263	0	33656	27608	32528
264	0	33664	27608	32513
265	0	33672	27612	32504
266	0	33660	27616	32492
267	0	33664	27612	32484
268	0	33672	27600	32468
269	0	33692	27600	32464
270	0	33680	27600	32456
271	0	33664	27600	32452
272	0	33680	27585	32452
273	0	33672	27576	32452
274	0	33672	27580	32452
275	0	33656	27584	32456
276	0	33648	27572	32456
277	0	33648	27588	32432
278	0	33648	27576	32429
279	0	33636	27584	32424
280	0	33640	27584	32420
281	0	33636	27568	32432
282	0	33644	27588	32417
283	0	33640	27572	32420
284	0	33628	27568	32424
285	0	33628	27576	32424
286	0	33640	27560	32416
287	0	33656	27548	32416
288	0	33648	27552	32413
289	0	33648	27548	32424
290	0	33664	27524	32420
291	0	33680	27548	32404
292	0	33680	27544	32388
293	0	33684	27556	32360
294	0	33688	27540	32368
295	0	33684	27532	32360
296	0	33660	27528	32352
297	0	33648	27525	32348
298	0	33648	27500	32344
299	0	33648	27501	32328
300	0	33628	27504	32324
301	0	33616	27489	32312
302	0	33624	27489	32316
303	0	33632	27492	32304
304	0	33616	27476	32309
305	0	33616	27484	32300
306	0	33612	27472	32302
307	0	33612	27461	32292
308	0	33616	27445	32288
309	0	33612	27436	32284
310	0	33600	27432	32292
311	0	33584	27429	32300
312	0	33568	27445	32300
313	0	33568	27436	32300
314	0	33584	27441	32300
315	0	33596	27472	32296
316	0	33576	27484	32316
317	0	33576	27484	32328
318	0	33580	27496	32351
319	0	33580	27489	32368
320	0	33588	27496	32372
321	0	33592	27484	32380
322	0	33592	27492	32384
323	0	33584	27489	32400
324	0	33600	27508	32388
325	0	33593	27492	32400
326	0	33604	27500	32424
327	0	33616	27489	32432
328	0	33612	27492	32452
329	0	33616	27493	32448
330	0	33624	27484	32460
331	0	33636	27480	32448
332	0	33640	27472	32464
333	0	33612	27464	32472
334	0	33600	27444	32480
335	0	33604	27448	32480
336	0	33609	27452	32484
337	0	33600	27460	32488
338	0	33600	27468	32488
339	0	33600	27460	32500
340	0	33624	27472	32500
341	0	33608	27480	32504
342	0	33592	27469	32528
343	0	33592	27464	32520
344	0	33572	27480	32516
345	0	33576	27473	32552
346	0	33560	27480	32540
347	0	33584	27477	32548
348	0	33576	27488	32552
349	0	33568	27484	32564
350	0	33568	27496	32556
351	0	33592	27496	32560
352	0	33592	27488	32566
353	0	33588	27504	32584
354	0	33576	27496	32584
355	0	33576	27496	32597
356	0	33568	27492	32624
357	0	33592	27488	32616
358	0	33576	27492	32608
359	0	33564	27488	32612
360	0	33564	27492	32612
361	0	33580	27500	32628
362	0	33580	27504	32624
363	0	33584	27504	32612
364	0	33600	27504	32604
365	0	33584	27492	32596
366	0	33576	27496	32584
367	0	33552	27480	32592
368	0	33548	27464	32588
369	0	33520	27466	32568
370	0	33508	27453	32568
371	0	33500	27456	32568
372	0	33508	27456	32552
373	0	33520	27448	32541
374	0	33500	27442	32532
375	0	33496	27448	32520
376	0	33504	27428	32524
377	0	33504	27412	32505
378	0	33484	27397	32496
379	0	33496	27400	32488
380	0	33492	27386	32488
381	0	33480	27380	32496
382	0	33492	27372	32500
383	0	33488	27361	32512
384	0	33488	27360	32512
385	0	33488	27348	32518
386	0	33488	27345	32516
387	0	33481	27328	32516
388	0	33488	27328	32524
389	0	33492	27332	32520
390	0	33476	27336	32520
391	0	33472	27336	32520
392	0	33464	27329	32516
393	0	33472	27321	32504
394	0	33472	27324	32504
395	0	33476	27312	32508
396	0	33480	27320	32488
397	0	33476	27300	32492
398	0	33480	27304	32481
399	0	33480	27306	32480
400	0	33496	27312	32480
401	0	33504	27302	32484
402	0	33508	27308	32488
403	0	33512	27308	32500
404	0	33528	27320	32508
405	0	33516	27329	32492
406	0	33488	27352	32488
407	0	33489	27352	32496
408	0	33476	27364	32504
409	0	33476	27364	32508
410	0	33480	27380	32510
411	0	33488	27385	32516
412	0	33496	27392	32516
413	0	33488	27392	32508
414	0	33472	27383	32506
415	0	33484	27372	32540
416	0	33512	27388	32613
417	0	33544	27424	32665
418	0	33552	27436	32652
419	0	33564	27408	32652
420	0	33552	27420	32646
421	0	33528	27406	32601
422	0	33504	27388	32576
423	0	33484	27392	32513
424	0	33464	27394	32480
425	0	33440	27376	32476
426	0	33408	27396	32456
427	0	33360	27396	32444
428	0	33364	27393	32416
429	0	33372	27409	32424
430	0	33356	27417	32445
431	0	33356	27444	32460
432	0	33360	27460	32468
433	0	33364	27484	32488
434	0	33388	27488	32488
435	0	33400	27496	32492
436	0	33400	27516	32516
437	0	33400	27532	32540
438	0	33400	27524	32564
439	0	33404	27540	32596
440	0	33428	27536	32624
441	0	33432	27535	32616
442	0	33412	27532	32624
443	0	33400	27536	32624
444	0	33412	27534	32636
445	0	33424	27520	32621
446	0	33392	27520	32608
447	0	33384	27513	32600
448	0	33368	27520	32616
449	0	33376	27509	32636
450	0	33388	27512	32613
451	0	33368	27524	32592
452	0	33360	27540	32588
453	0	33364	27536	32572
454	0	33344	27536	32560
455	0	33344	27528	32544
456	0	33364	27516	32532
457	0	33376	27488	32540
458	0	33384	27489	32544
459	0	33396	27452	32536
460	0	33392	27433	32524
461	0	33388	27416	32492
462	0	33388	27396	32500
463	0	33392	27376	32520
464	0	33396	27372	32516
465	0	33404	27360	32504
466	0	33408	27352	32484
467	0	33424	27333	32484
468	0	33420	27326	32488
469	0	33424	27324	32484
470	0	33440	27308	32488
471	0	33464	27301	32480
472	0	33436	27296	32456
473	0	33436	27288	32464
474	0	33440	27300	32464
475	0	33432	27308	32460
476	0	33432	27298	32492
477	0	33432	27305	32488
478	0	33444	27320	32472
479	0	33432	27324	32468
480	0	33448	27316	32476
481	0	33424	27320	32464
482	0	33437	27330	32444
483	0	33416	27332	32460
484	0	33416	27348	32492
485	0	33424	27341	32500
486	0	33436	27356	32500
487	0	33448	27354	32496
488	0	33468	27356	32516
489	0	33472	27360	32516
490	0	33452	27365	32501
491	0	33448	27373	32516
492	0	33448	27377	32532
493	0	33468	27388	32509
494	0	33472	27396	32500
495	0	33460	27417	32496
496	0	33448	27408	32504
497	0	33452	27416	32520
498	0	33476	27416	32532
499	0	33488	27428	32528
500	0	33472	27444	32528
501	0	33484	27450	32541
502	0	33484	27464	32548
503	0	33480	27474	32548
504	0	33496	27466	32556
505	0	33488	27480	32544
506	0	33492	27465	32544
507	0	33488	27460	32548
508	0	33480	27460	32544
509	0	33480	27458	32544
510	0	33500	27460	32552
511	0	33492	27464	32532
512	0	33488	27457	32542
513	0	33488	27456	32520
514	0	33504	27452	32496
515	0	33488	27465	32480
516	0	33488	27460	32472
517	0	33500	27464	32480
518	0	33488	27445	32461
519	0	33464	27448	32472
520	0	33452	27440	32472
521	0	33448	27437	32456
522	0	33452	27436	32448
523	0	33464	27424	32444
524	0	33448	27412	32448
525	0	33460	27417	32424
526	0	33440	27416	32432
527	0	33436	27416	32416
528	0	33456	27412	32420
529	0	33448	27408	32405
530	0	33432	27404	32420
531	0	33496	27392	32504
532	0	33508	27412	32492
533	0	33480	27412	32452
534	0	33480	27404	32436
535	0	33476	27412	32400
536	0	33452	27404	32384
537	0	33436	27404	32352
538	0	33428	27416	32344
539	0	33400	27416	32344
540	0	33376	27424	32348
541	0	33376	27436	32352
542	0	33400	27424	32352
543	0	33400	27440	32356
544	0	33404	27456	32382
545	0	33404	27460	32376
546	0	33396	27460	32348
547	0	33392	27488	32332
548	0	33388	27512	32338
549	0	33404	27520	32340
550	0	33404	27536	32340
551	0	33388	27532	32336
552	0	33400	27525	32337
553	0	33417	27536	32344
554	0	33416	27544	32352
555	0	33420	27548	32352
556	0	33396	27552	32366
557	0	33400	27560	32368
558	0	33408	27580	32381
559	0	33416	27576	32392
560	0	33385	27584	32376
561	0	33380	27592	32356
562	0	33364	27585	32360
563	0	33384	27580	32364
564	0	33384	27596	32380
565	0	33364	27606	32356
566	0	33352	27628	32356
567	0	33352	27628	32376
568	0	33368	27628	32372
569	0	33384	27628	32364
570	0	33384	27644	32380
571	0	33384	27656	32380
572	0	33384	27664	32380
573	0	33392	27676	32380
574	0	33388	27688	32372
575	0	33396	27684	32377
576	0	33396	27688	32380
577	0	33404	27685	32380
578	0	33424	27676	32392
579	0	33424	27660	32385
580	0	33432	27652	32392
581	0	33440	27652	32388
582	0	33452	27644	32396
583	0	33472	27624	32408
584	0	33440	27636	32420
585	0	33460	27608	32432
586	0	33448	27596	32444
587	0	33472	27608	32432
588	0	33488	27596	32440
589	0	33504	27592	32436
590	0	33516	27576	32456
591	0	33540	27572	32446
592	0	33548	27565	32428
593	0	33552	27574	32416
594	0	33544	27561	32424
595	0	33528	27560	32413
596	0	33540	27545	32408
597	0	33544	27552	32380
598	0	33552	27572	32396
599	0	33536	27550	32384
600	0	33532	27560	32368
601	0	33544	27552	32364
602	0	33552	27552	32360
603	0	33536	27548	32367
604	0	33548	27528	32356
605	0	33540	27528	32360
606	0	33544	27528	32360
607	0	33536	27533	32332
608	0	33492	27544	32326
609	0	33504	27560	32324
610	0	33516	27552	32316
611	0	33520	27556	32302
612	0	33529	27544	32308
613	0	33544	27536	32308
614	0	33544	27530	32296
615	0	33528	27512	32280
616	0	33524	27496	32254
617	0	33536	27500	32236
618	0	33552	27504	32228
619	0	33532	27501	32216
620	0	33512	27476	32237
621	0	33524	27456	32248
622	0	33529	27460	32248
623	0	33528	27453	32268
624	0	33552	27440	32288
625	0	33560	27416	32280
626	0	33552	27417	32281
627	0	33552	27417	32292
628	0	33544	27408	32284
629	0	33528	27416	32292
630	0	33524	27424	32297
631	0	33536	27417	32300
632	0	33560	27420	32324
633	0	33552	27420	32328
634	0	33552	27412	32344
635	0	33552	27368	32364
636	0	33552	27296	32389
637	0	33528	27148	32416
638	0	33472	26676	32492
639	0	33304	26052	32688
640	0	33416	26540	32776
641	0	33668	26972	32704
642	0	33820	27117	32588
643	0	33852	27228	32488
644	0	33824	27384	32424
645	0	33768	27524	32372
646	0	33720	27620	32360
647	0	33656	27676	32336
648	0	33608	27728	32304
649	0	33560	27772	32268
650	0	33560	27820	32240
651	0	33572	27852	32217
652	0	33572	27868	32232
653	0	33552	27860	32252
654	0	33564	27832	32296
655	0	33552	27792	32351
656	0	33560	27752	32412
657	0	33568	27740	32448
658	0	33592	27716	32492
659	0	33608	27684	32528
660	0	33628	27665	32548
661	0	33632	27647	32584
662	0	33632	27632	32608
663	0	33620	27628	32644
664	0	33620	27628	32652
665	0	33616	27620	32652
666	0	33608	27624	32644
667	0	33600	27640	32641
668	0	33584	27624	32636
669	0	33562	27633	32626
670	0	33576	27629	32592
671	0	33572	27617	32576
672	0	33564	27632	32540
673	0	33564	27628	32512
674	0	33560	27644	32484
675	0	33544	27644	32464
676	0	33525	27624	32452
677	0	33524	27636	32424
678	0	33520	27624	32408
679	0	33520	27620	32376
680	0	33508	27608	32344
681	0	33500	27580	32328
682	0	33532	27548	32320
683	0	33524	27540	32308
684	0	33512	27524	32308
685	0	33500	27521	32296
686	0	33484	27512	32285
687	0	33500	27500	32292
688	0	33512	27508	32296
689	0	33508	27504	32300
690	0	33512	27488	32298
691	0	33532	27460	32320
692	0	33560	27313	32377
693	0	33632	26976	32544
694	0	33712	26674	32732
695	0	33712	26856	32828
696	0	33712	27293	32812
697	0	33757	27552	32812
698	0	33800	27692	32728
699	0	33800	27720	32644
700	0	33784	27696	32541
701	0	33728	27608	32516
702	0	33705	27489	32541
703	0	33628	27432	32500
704	0	33580	27400	32536
705	0	33580	27413	32560
706	0	33600	27468	32584
707	0	33620	27548	32568
708	0	33632	27608	32556
709	0	33644	27612	32584
710	0	33656	27593	32620
711	0	33668	27582	32636
712	0	33688	27582	32617
713	0	33684	27628	32540
714	0	33676	27704	32412
715	0	33680	27721	32304
716	0	33656	27673	32228
717	0	33640	27624	32192
718	0	33576	27580	32204
719	0	33520	27544	32159
720	0	33456	27516	32165
721	0	33448	27513	32176
722	0	33412	27510	32200
723	0	33408	27532	32232
724	0	33440	27568	32248
725	0	33464	27576	32312
726	0	33496	27550	32344
727	0	33520	27528	32373
728	0	33529	27528	32408
729	0	33540	27504	32453
730	0	33564	27504	32456
731	0	33564	27501	32472
732	0	33544	27508	32456
733	0	33544	27528	32428
734	0	33545	27543	32424
735	0	33516	27553	32432
736	0	33496	27560	32416
737	0	33488	27556	32384
738	0	33480	27577	32364
739	0	33504	27588	32340
740	0	33488	27597	32344
741	0	33489	27609	32340
742	0	33492	27620	32324
743	0	33501	27632	32300
744	0	33504	27656	32332
745	0	33584	27736	32388
746	0	33716	27824	32620
747	0	33772	27816	32744
748	0	33816	27788	32788
749	0	33856	27740	32772
750	0	33876	27693	32724
751	0	33872	27660	32680
752	0	33836	27621	32648
753	0	33784	27577	32592
754	0	33752	27548	32604
755	0	33720	27532	32536
756	0	33700	27532	32532
757	0	33648	27535	32500
758	0	33621	27544	32496
759	0	33584	27564	32477
760	0	33552	27608	32461
761	0	33548	27624	32416
762	0	33524	27632	32392
763	0	33512	27640	32336
764	0	33480	27656	32316
765	0	33464	27668	32308
766	0	33448	27660	32298
767	0	33436	27660	32285
768	0	33412	27644	32264
769	0	33416	27645	32280
770	0	33424	27637	32312
771	0	33432	27629	32383
772	0	33444	27664	32445
773	0	33464	27700	32500
774	0	33452	27712	32540
775	0	33488	27712	32568
776	0	33508	27716	32588
777	0	33532	27730	32608
778	0	33572	27704	32616
779	0	33552	27704	32608
780	0	33552	27692	32604
781	0	33540	27688	32600
782	0	33524	27692	32608
783	0	33540	27692	32612
784	0	33528	27696	32616
785	0	33532	27692	32612
786	0	33536	27680	32604
787	0	33536	27672	32616
788	0	33504	27680	32572
789	0	33516	27672	32552
790	0	33524	27673	32564
791	0	33516	27682	32567
792	0	33520	27712	32577
793	0	33536	27740	32620
794	0	33516	27724	32632
795	0	33489	27712	32629
796	0	33480	27728	32616
797	0	33476	27736	32616
798	0	33472	27720	32632
799	0	33472	27704	32624
800	0	33464	27664	32640
801	0	33452	27653	32620
802	0	33456	27624	32616
803	0	33428	27572	32608
804	0	33428	27514	32628
805	0	33436	27436	32640
806	0	33440	27372	32640
807	0	33440	27336	32652
808	0	33452	27372	32628
809	0	33424	27448	32616
810	0	33416	27508	32600
811	0	33400	27524	32576
812	0	33364	27552	32541
813	0	33324	27576	32500
814	0	33296	27592	32456
815	0	33288	27604	32440
816	0	33280	27604	32408
817	0	33264	27604	32380
818	0	33252	27613	32364
819	0	33232	27620	32365
820	0	33224	27620	32364
821	0	33200	27632	32356
822	0	33196	27664	32348
823	0	33168	27668	32352
824	0	33136	27680	32360
825	0	33120	27676	32360
826	0	33112	27664	32364
827	0	33092	27680	32365
828	0	33076	27676	32392
829	0	33064	27676	32388
830	0	33064	27665	32396
831	0	33088	27647	32417
832	0	33092	27624	32456
833	0	33084	27608	32476
834	0	33053	27584	32489
835	0	33072	27576	32514
836	0	33088	27572	32540
837	0	33088	27580	32556
838	0	33104	27568	32604
839	0	33088	27552	32620
840	0	33052	27560	32628
841	0	33040	27557	32636
842	0	33040	27552	32668
843	0	33049	27532	32676
844	0	33028	27524	32692
845	0	33040	27508	32688
846	0	33052	27524	32692
847	0	33060	27540	32700
848	0	33024	27540	32696
849	0	33032	27552	32684
850	0	33040	27544	32677
851	0	33032	27561	32680
852	0	33012	27572	32676
853	0	33008	27592	32692
854	0	33008	27584	32704
855	0	33024	27616	32720
856	0	33008	27613	32724
857	0	33000	27608	32732
858	0	32984	27608	32724
859	0	32984	27604	32720
860	0	32984	27616	32716
861	0	32952	27628	32696
862	0	32960	27610	32716
863	0	32949	27636	32716
864	0	32952	27632	32714
865	0	32940	27620	32712
866	0	32944	27640	32704
867	0	32932	27640	32704
868	0	32909	27632	32716
869	0	32912	27640	32716
870	0	32916	27648	32724
871	0	32916	27664	32720
872	0	32920	27668	32732
873	0	32924	27684	32736
874	0	32932	27704	32748
875	0	32920	27704	32740
876	0	32892	27690	32740
877	0	32880	27696	32729
878	0	32908	27696	32717
879	0	32924	27688	32708
880	0	32904	27684	32704
881	0	32857	27672	32696
882	0	32880	27680	32684
883	0	32861	27661	32680
884	0	32872	27664	32676
885	0	32840	27648	32656
886	0	32820	27632	32644
887	0	32800	27620	32629
888	0	32788	27608	32616
889	0	32800	27584	32616
890	0	32808	27580	32608
891	0	32804	27556	32576
892	0	32788	27528	32580
893	0	32784	27508	32568
894	0	32804	27504	32541
895	0	32800	27484	32532
896	0	32796	27456	32552
897	0	32800	27452	32540
898	0	32796	27442	32528
899	0	32744	27432	32521
900	0	32764	27413	32528
901	0	32784	27412	32520
902	0	32768	27389	32512
903	0	32764	27364	32520
904	0	32756	27362	32492
905	0	32744	27340	32504
906	0	32720	27360	32480
907	0	32712	27364	32448
908	0	32712	27352	32464
909	0	32696	27328	32501
910	0	32700	27349	32505
911	0	32712	27361	32472
912	0	32672	27360	32482
913	0	32672	27368	32468
914	0	32680	27368	32476
915	0	32696	27376	32476
916	0	32684	27392	32452
917	0	32688	27389	32480
918	0	32684	27408	32476
919	0	32656	27412	32476
920	0	32620	27409	32480
921	0	32640	27400	32484
922	0	32656	27404	32472
923	0	32688	27420	32492
924	0	32636	27417	32480
925	0	32608	27404	32480
926	0	32632	27408	32488
927	0	32664	27408	32497
928	0	32560	27372	32492
929	0	32532	27376	32492
930	0	32560	27376	32512
931	0	32584	27376	32517
932	0	32648	27384	32508
933	0	32632	27368	32516
934	0	32568	27352	32528
935	0	32560	27328	32532
936	0	32540	27332	32532
937	0	32540	27329	32532
938	0	32576	27337	32540
939	0	32592	27328	32556
940	0	32552	27304	32536
941	0	32496	27296	32512
942	0	32504	27294	32524
943	0	32528	27301	32544
944	0	32540	27310	32541
945	0	32540	27324	32548
946	0	32524	27336	32568
947	0	32588	27348	32564
948	0	32612	27352	32596
949	0	32576	27397	32572
950	0	32568	27372	32584
951	0	32576	27360	32596
952	0	32504	27352	32562
953	0	32412	27336	32552
954	0	32524	27348	32592
955	0	32592	27376	32600
956	0	32608	27376	32632
957	0	32592	27384	32644
958	0	32536	27376	32624
959	0	32512	27364	32616
960	0	32572	27364	32620
961	0	32568	27340	32608
962	0	32556	27340	32609
963	0	32580	27356	32617
964	0	32641	27373	32608
965	0	32600	27373	32616
966	0	32560	27337	32608
967	0	32600	27364	32612
968	0	32616	27372	32604
969	0	32560	27372	32586
970	0	32576	27356	32592
971	0	32648	27374	32588
972	0	32608	27366	32560
973	0	32724	27396	32592
974	0	32752	27407	32528
975	0	32772	27412	32548
976	0	32752	27385	32536
977	0	32732	27400	32516
978	0	32808	27431	32492
979	0	32732	27420	32456
980	0	32588	27372	32444
981	0	32616	27384	32460
982	0	32584	27368	32424
983	0	32724	27468	32452
984	0	32740	27456	32400
985	0	32736	27440	32380
986	0	32796	27452	32397
987	0	32792	27456	32364
988	0	32584	27436	32364
989	0	32524	27396	32372
990	0	32572	27396	32380
991	0	32544	27388	32392
992	0	32542	27404	32368
993	0	32604	27448	32413
994	0	32624	27416	32376
995	0	32436	27408	32392
996	0	32436	27384	32380
997	0	32528	27424	32388
998	0	32592	27449	32384
999	0	32716	27480	32352
1000	0	32560	27452	32324
1001	0	32480	27406	32340
1002	0	32472	27396	32348
1003	0	32556	27417	32364
1004	0	32512	27420	32388
1005	0	32584	27436	32364
1006	0	32592	27417	32368
1007	0	32544	27392	32364
1008	0	32424	27388	32428
1009	0	32352	27356	32464
1010	0	32384	27344	32480
1011	0	32456	27348	32508
1012	0	32512	27356	32508
1013	0	32536	27405	32512
1014	0	32564	27410	32560
1015	0	32585	27412	32568
1016	0	32560	27428	32584
1017	0	32528	27416	32584
1018	0	32484	27430	32600
1019	0	32634	27456	32621
1020	0	32680	27477	32580
1021	0	32648	27492	32560
1022	0	32660	27508	32512
1023	0	32544	27476	32536
1024	0	32552	27472	32584
1025	0	32512	27484	32560
1026	0	32492	27492	32552
1027	0	32488	27452	32612
1028	0	32564	27504	32648
1029	0	32576	27481	32640
1030	0	32496	27453	32680
1031	0	32544	27456	32716
1032	0	32584	27496	32701
1033	0	32576	27488	32700
1034	0	32576	27500	32685
1035	0	32576	27504	32724
1036	0	32648	27540	32713
1037	0	32672	27552	32732
1038	0	32680	27545	32752
1039	0	32664	27544	32736
1040	0	32616	27528	32733
1041	0	32564	27512	32740
1042	0	32652	27556	32744
1043	0	32740	27580	32740
1044	0	32796	27592	32752
1045	0	32712	27577	32764
1046	0	32684	27596	32760
1047	0	32672	27616	32780
1048	0	32648	27600	32832
1049	0	32620	27580	32872
1050	0	32572	27560	32892
1051	0	32560	27548	32916
1052	0	32556	27556	32900
1053	0	32576	27560	32908
1054	0	32572	27548	32900
1055	0	32588	27559	32888
1056	0	32604	27548	32896
1057	0	32608	27548	32892
1058	0	32584	27536	32892
1059	0	32600	27536	32888
1060	0	32624	27532	32880
1061	0	32628	27525	32868
1062	0	32624	27544	32860
1063	0	32624	27552	32852
1064	0	32632	27560	32840
1065	0	32628	27548	32836
1066	0	32644	27536	32824
1067	0	32625	27536	32812
1068	0	32624	27521	32808
1069	0	32618	27521	32808
1070	0	32620	27516	32800
1071	0	32604	27500	32812
1072	0	32600	27492	32788
1073	0	32580	27476	32765
1074	0	32588	27461	32768
1075	0	32588	27453	32760
1076	0	32592	27444	32745
1077	0	32592	27448	32736
1078	0	32580	27450	32720
1079	0	32592	27444	32720
1080	0	32585	27432	32712
1081	0	32576	27432	32712
1082	0	32568	27448	32704
1083	0	32544	27436	32708
1084	0	32532	27444	32708
1085	0	32544	27452	32716
1086	0	32553	27468	32704
1087	0	32560	27472	32700
1088	0	32588	27480	32684
1089	0	32600	27492	32666
1090	0	32592	27480	32660
1091	0	32592	27485	32644
1092	0	32577	27460	32640
1093	0	32592	27468	32620
1094	0	32520	27480	32604
1095	0	32632	27488	32592
1096	0	32680	27484	32572
1097	0	32584	27476	32528
1098	0	32552	27484	32505
1099	0	32608	27496	32509
1100	0	32640	27517	32516
1101	0	32692	27528	32524
1102	0	32692	27528	32524
1103	0	32672	27519	32496
1104	0	32636	27520	32477
1105	0	32616	27509	32464
1106	0	32612	27492	32449
1107	0	32640	27502	32460
1108	0	32668	27504	32472
1109	0	32720	27492	32477
1110	0	32720	27473	32480
1111	0	32688	27492	32476
1112	0	32572	27436	32633
1113	0	32316	27368	32784
1114	0	32248	27358	32856
1115	0	32288	27340	32900
1116	0	32312	27336	32916
1117	0	32268	27328	32928
1118	0	32308	27337	32912
1119	0	32404	27364	32892
1120	0	32448	27368	32892
1121	0	32472	27376	32892
1122	0	32472	27396	32932
1123	0	32504	27421	32968
1124	0	32528	27432	33004
1125	0	32528	27448	33008
1126	0	32536	27472	33012
1127	0	32528	27485	33044
1128	0	32516	27496	33072
1129	0	32496	27493	33100
1130	0	32500	27500	33144
1131	0	32508	27564	33180
1132	0	32532	27612	33272
1133	0	32552	27656	33344
1134	0	32560	27712	33412
1135	0	32564	27744	33448
1136	0	32552	27744	33460
1137	0	32544	27724	33460
1138	0	32540	27700	33432
1139	0	32540	27676	33400
1140	0	32528	27632	33328
1141	0	32496	27588	33268
1142	0	32496	27564	33216
1143	0	32488	27512	33192
1144	0	32500	27468	33132
1145	0	32468	27440	33088
1146	0	32460	27412	33049
1147	0	32472	27400	33032
1148	0	32464	27376	32996
1149	0	32448	27372	32944
1150	0	32436	27364	32909
1151	0	32424	27364	32868
1152	0	32440	27348	32832
1153	0	32464	27344	32808
1154	0	32448	27369	32772
1155	0	32448	27381	32752
1156	0	32432	27388	32740
1157	0	32400	27404	32744
1158	0	32400	27388	32728
1159	0	32376	27404	32704
1160	0	32368	27404	32688
1161	0	32352	27416	32668
1162	0	32340	27428	32672
1163	0	32340	27436	32640
1164	0	32336	27448	32632
1165	0	32320	27436	32636
1166	0	32296	27438	32636
1167	0	32276	27452	32637
1168	0	32286	27465	32648
1169	0	32284	27468	32652
1170	0	32253	27472	32652
1171	0	32256	27472	32664
1172	0	32280	27508	32669
1173	0	32260	27516	32680
1174	0	32268	27528	32696
1175	0	32264	27532	32692
1176	0	32240	27536	32684
1177	0	32248	27524	32668
1178	0	32252	27528	32648
1179	0	32228	27532	32652
1180	0	32232	27536	32640
1181	0	32228	27544	32632
1182	0	32236	27552	32628
1183	0	32232	27545	32632
1184	0	32192	27520	32640
1185	0	32176	27524	32644
1186	0	32176	27549	32608
1187	0	32152	27556	32584
1188	0	32156	27540	32572
1189	0	32156	27552	32564
1190	0	32120	27567	32532
1191	0	32116	27560	32536
1192	0	32124	27580	32532
1193	0	32141	27584	32524
1194	0	32124	27584	32495
1195	0	32104	27584	32500
1196	0	32116	27604	32472
1197	0	32112	27632	32480
1198	0	32092	27628	32468
1199	0	32072	27653	32468
1200	0	32080	27672	32472
1201	0	32060	27680	32460
1202	0	32052	27704	32452
1203	0	32048	27700	32460
1204	0	32004	27705	32456
1205	0	32000	27700	32452
1206	0	31960	27708	32448
1207	0	31960	27676	32476
1208	0	31936	27676	32485
1209	0	31952	27680	32488
1210	0	31944	27684	32492
1211	0	31916	27685	32504
1212	0	31908	27684	32528
1213	0	31892	27676	32544
1214	0	31892	27684	32572
1215	0	31912	27705	32580
1216	0	31872	27697	32600
1217	0	31878	27696	32610
1218	0	31880	27700	32640
1219	0	31876	27705	32668
1220	0	31876	27712	32664
1221	0	31888	27720	32688
1222	0	31888	27721	32712
1223	0	31872	27734	32716
1224	0	31864	27744	32732
1225	0	31856	27748	32736
1226	0	31840	27730	32764
1227	0	31812	27728	32765
1228	0	31828	27704	32812
1229	0	31820	27712	32808
1230	0	31796	27696	32788
1231	0	31784	27653	32808
1232	0	31792	27628	32832
1233	0	31768	27653	32784
1234	0	31764	27646	32744
1235	0	31780	27668	32709
1236	0	31780	27672	32697
1237	0	31816	27712	32640
1238	0	31828	27752	32588
1239	0	31848	27780	32572
1240	0	31872	27812	32564
1241	0	31872	27856	32560
1242	0	31892	27880	32560
1243	0	31904	27873	32600
1244	0	31888	27872	32636
1245	0	31856	27868	32648
1246	0	31828	27828	32660
1247	0	31808	27792	32668
1248	0	31788	27772	32660
1249	0	31748	27736	32668
1250	0	31776	27712	32700
1251	0	31752	27704	32688
1252	0	31720	27692	32704
1253	0	31736	27676	32712
1254	0	31680	27640	32717
1255	0	31648	27616	32716
1256	0	31644	27576	32708
1257	0	31616	27550	32700
1258	0	31592	27520	32716
1259	0	31580	27496	32712
1260	0	31572	27512	32672
1261	0	31552	27524	32636
1262	0	31536	27477	32665
1263	0	31480	27460	32648
1264	0	31472	27364	32668
1265	0	31476	27324	32648
1266	0	31432	27317	32584
1267	0	31392	27240	32568
1268	0	31312	27116	32524
1269	0	31240	26848	32444
1270	0	31072	25768	32284
1271	0	30824	25272	32060
1272	0	30736	26012	31836
1273	0	30920	26321	31972
1274	0	31112	26500	32269
1275	0	31288	26616	32504
1276	0	31380	26932	32680
1277	0	31480	27144	32808
1278	0	31580	27457	32806
1279	0	31728	27617	32864
1280	0	31788	27644	32876
1281	0	31808	27784	32900
1282	0	31804	27816	32896
1283	0	31737	27864	32880
1284	0	31676	27980	32884
1285	0	31640	27952	32916
1286	0	31576	27905	32908
1287	0	31564	27952	32828
1288	0	31504	27872	32860
1289	0	31472	27864	32852
1290	0	31416	27944	32840
1291	0	31392	27984	32833
1292	0	31380	27784	32908
1293	0	31312	27760	32868
1294	0	31290	27877	32784
1295	0	31248	27760	32772
1296	0	31224	27682	32816
1297	0	31208	27792	32768
1298	0	31196	27768	32788
1299	0	31224	27744	32766
1300	0	31136	27680	32748
1301	0	31128	27704	32720
1302	0	31116	27724	32672
1303	0	31133	27728	32676
1304	0	31128	27644	32672
1305	0	31128	27722	32640
1306	0	31140	27673	32628
1307	0	31084	27756	32576
1308	0	31064	27688	32608
1309	0	31008	27576	32608
1310	0	31008	27788	32516
1311	0	31024	27785	32488
1312	0	31024	27664	32537
1313	0	30972	27621	32540
1314	0	30980	27732	32504
1315	0	31012	27768	32472
1316	0	31026	27892	32448
1317	0	31000	27672	32552
1318	0	30936	27705	32548
1319	0	30932	27952	32480
1320	0	30952	27892	32527
1321	0	30920	27893	32556
1322	0	30920	27988	32540
1323	0	30932	27948	32540
1324	0	30936	28173	32500
1325	0	30964	28132	32548
1326	0	30936	28201	32568
1327	0	30920	28190	32600
1328	0	30904	28104	32616
1329	0	30876	28248	32553
1330	0	30888	28260	32544
1331	0	30844	28232	32568
1332	0	30816	28254	32572
1333	0	30828	28240	32572
1334	0	30800	28152	32572
1335	0	30740	28270	32536
1336	0	30745	28236	32572
1337	0	30760	28304	32544
1338	0	30700	28229	32540
1339	0	30592	28078	32556
1340	0	30552	28080	32520
1341	0	30541	28272	32460
1342	0	30556	28328	32480
1343	0	30580	28160	32568
1344	0	30544	28236	32556
1345	0	30552	28320	32548
1346	0	30556	28181	32592
1347	0	30496	28162	32596
1348	0	30456	28148	32556
1349	0	30440	28056	32574
1350	0	30416	27996	32564
1351	0	30432	28180	32513
1352	0	30472	28292	32488
1353	0	30504	28328	32548
1354	0	30532	28348	32576
1355	0	30568	28408	32600
1356	0	30576	28336	32632
1357	0	30580	28241	32656
1358	0	30536	28428	32553
1359	0	30545	28396	32572
1360	0	30488	28276	32604
1361	0	30448	28239	32608
1362	0	30429	28180	32604
1363	0	30416	28221	32556
1364	0	30384	28304	32528
1365	0	30396	28264	32564
1366	0	30404	28281	32560
1367	0	30440	28190	32588
1368	0	30428	28164	32568
1369	0	30384	28160	32568
1370	0	30344	28120	32548
1371	0	30328	28080	32516
1372	0	30276	28204	32456
1373	0	30300	28228	32488
1374	0	30312	28296	32480
1375	0	30288	28276	32512
1376	0	30297	28172	32541
1377	0	30324	28108	32545
1378	0	30288	28248	32476
1379	0	30288	28268	32456
1380	0	30268	28232	32476
1381	0	30288	28293	32452
1382	0	30281	28344	32447
1383	0	30244	28352	32448
1384	0	30240	28357	32468
1385	0	30272	28364	32485
1386	0	30288	28397	32440
1387	0	30280	28344	32441
1388	0	30244	28285	32460
1389	0	30212	28300	32424
1390	0	30192	28296	32424
1391	0	30136	28254	32416
1392	0	30136	28281	32416
1393	0	30168	28276	32416
1394	0	30160	28316	32408
1395	0	30132	28364	32396
1396	0	30160	28328	32464
1397	0	30148	28360	32444
1398	0	30156	28368	32428
1399	0	30176	28360	32444
1400	0	30144	28356	32441
1401	0	30152	28376	32437
1402	0	30132	28349	32428
1403	0	30112	28344	32408
1404	0	30092	28408	32392
1405	0	30090	28400	32404
1406	0	30072	28408	32392
1407	0	30076	28452	32376
1408	0	30060	28500	32401
1409	0	30052	28496	32430
1410	0	30032	28504	32420
1411	0	30036	28486	32413
1412	0	30064	28512	32392
1413	0	30052	28512	32372
1414	0	30016	28532	32368
1415	0	29980	28508	32376
1416	0	29940	28496	32384
1417	0	29920	28516	32372
1418	0	29896	28508	32364
1419	0	29896	28488	32392
1420	0	29880	28520	32392
1421	0	29872	28528	32392
1422	0	29844	28540	32408
1423	0	29817	28560	32404
1424	0	29852	28568	32400
1425	0	29871	28564	32400
1426	0	29876	28556	32404
1427	0	29884	28537	32428
1428	0	29912	28516	32428
1429	0	29913	28524	32445
1430	0	29920	28533	32437
1431	0	29920	28518	32432
1432	0	29916	28512	32440
1433	0	29936	28500	32452
1434	0	29920	28508	32448
1435	0	29924	28512	32440
1436	0	29900	28504	32436
1437	0	29916	28492	32424
1438	0	29904	28492	32412
1439	0	29896	28486	32408
1440	0	29880	28488	32396
1441	0	29888	28493	32384
1442	0	29872	28520	32368
1443	0	29856	28540	32349
1444	0	29856	28532	32328
1445	0	29840	28528	32332
1446	0	29840	28520	32324
1447	0	29832	28525	32309
1448	0	29840	28520	32284
1449	0	29840	28510	32292
1450	0	29832	28516	32272
1451	0	29832	28532	32256
1452	0	29840	28525	32254
1453	0	29832	28520	32248
1454	0	29832	28524	32268
1455	0	29852	28528	32264
1456	0	29856	28528	32268
1457	0	29860	28540	32276
1458	0	29860	28552	32276
1459	0	29888	28548	32288
1460	0	29868	28540	32292
1461	0	29848	28548	32292
1462	0	29821	28564	32284
1463	0	29796	28580	32293
1464	0	29804	28581	32316
1465	0	29832	28580	32308
1466	0	29848	28608	32308
1467	0	29836	28608	32301
1468	0	29840	28624	32312
1469	0	29820	28628	32312
1470	0	29836	28652	32296
1471	0	29860	28664	32280
1472	0	29860	28680	32280
1473	0	29860	28668	32276
1474	0	29852	28666	32268
1475	0	29832	28676	32272
1476	0	29848	28696	32276
1477	0	29840	28716	32280
1478	0	29856	28728	32288
1479	0	29860	28728	32316
1480	0	29856	28736	32300
1481	0	29840	28740	32312
1482	0	29828	28752	32312
1483	0	29808	28756	32308
1484	0	29824	28736	32308
1485	0	29820	28756	32288
1486	0	29820	28736	32288
1487	0	29812	28736	32296
1488	0	29784	28740	32296
1489	0	29780	28744	32300
1490	0	29784	28732	32304
1491	0	29784	28732	32308
1492	0	29800	28732	32312
1493	0	29788	28729	32309
1494	0	29768	28734	32288
1495	0	29756	28748	32296
1496	0	29760	28740	32316
1497	0	29752	28740	32312
1498	0	29760	28740	32308
1499	0	29764	28732	32324
1500	0	29768	28740	32312
1501	0	29740	28748	32320
1502	0	29728	28760	32324
1503	0	29752	28752	32328
1504	0	29744	28768	32336
1505	0	29760	28768	32352
1506	0	29760	28750	32352
1507	0	29740	28752	32357
1508	0	29740	28752	32372
1509	0	29732	28750	32372
1510	0	29744	28760	32372
1511	0	29760	28760	32377
1512	0	29760	28764	32356
1513	0	29756	28756	32380
1514	0	29744	28760	32388
1515	0	29740	28750	32376
1516	0	29736	28740	32376
1517	0	29724	28732	32384
1518	0	29720	28740	32380
1519	0	29726	28748	32397
1520	0	29720	28756	32392
1521	0	29732	28744	32416
1522	0	29708	28748	32416
1523	0	29724	28750	32416
1524	0	29744	28758	32420
1525	0	29748	28772	32416
1526	0	29752	28780	32412
1527	0	29748	28776	32400
1528	0	29716	28780	32396
1529	0	29728	28776	32404
1530	0	29704	28780	32415
1531	0	29704	28784	32400
1532	0	29708	28796	32397
1533	0	29720	28796	32392
1534	0	29672	28816	32400
1535	0	29664	28818	32409
1536	0	29672	28832	32416
1537	0	29652	28832	32408
1538	0	29640	28848	32400
1539	0	29652	28860	32408
1540	0	29668	28844	32408
1541	0	29644	28832	32399
1542	0	29648	28832	32396
1543	0	29648	28829	32414
1544	0	29648	28812	32432
1545	0	29644	28816	32428
1546	0	29632	28816	32424
1547	0	29608	28808	32444
1548	0	29600	28801	32448
1549	0	29576	28804	32456
1550	0	29584	28812	32448
1551	0	29600	28832	32442
1552	0	29616	28832	32452
1553	0	29636	28828	32452
1554	0	29624	28829	32448
1555	0	29624	28820	32456
1556	0	29608	28828	32460
1557	0	29632	28816	32472
1558	0	29620	28816	32473
1559	0	29620	28808	32492
1560	0	29616	28808	32500
1561	0	29609	28808	32500
1562	0	29600	28812	32500
1563	0	29604	28808	32516
1564	0	29612	28812	32532
1565	0	29616	28820	32544
1566	0	29604	28820	32568
1567	0	29628	28820	32573
1568	0	29640	28832	32592
1569	0	29636	28832	32620
1570	0	29636	28840	32625
1571	0	29640	28849	32652
1572	0	29660	28864	32672
1573	0	29664	28868	32688
1574	0	29692	28872	32676
1575	0	29708	28860	32684
1576	0	29688	28849	32696
1577	0	29688	28856	32704
1578	0	29680	28856	32704
1579	0	29661	28860	32716
1580	0	29624	28868	32708
1581	0	29620	28872	32720
1582	0	29624	28870	32720
1583	0	29620	28872	32708
1584	0	29600	28868	32732
1585	0	29584	28864	32732
1586	0	29588	28866	32741
1587	0	29596	28872	32756
1588	0	29576	28858	32748
1589	0	29572	28872	32760
1590	0	29588	28876	32764
1591	0	29584	28880	32764
1592	0	29536	28884	32772
1593	0	29544	28900	32788
1594	0	29576	28892	32808
1595	0	29616	28896	32808
1596	0	29592	28892	32800
1597	0	29584	28908	32797
1598	0	29593	28920	32804
1599	0	29597	28925	32799
1600	0	29596	28920	32780
1601	0	29604	28920	32760
1602	0	29576	28924	32740
1603	0	29568	28936	32728
1604	0	29580	28943	32700
1605	0	29568	28936	32684
1606	0	29560	28940	32658
1607	0	29552	28936	32644
1608	0	29540	28950	32625
1609	0	29552	28952	32616
1610	0	29552	28952	32600
1611	0	29524	28961	32576
1612	0	29460	28948	32584
1613	0	29440	28944	32584
1614	0	29448	28941	32592
1615	0	29440	28932	32592
1616	0	29424	28928	32584
1617	0	29416	28944	32592
1618	0	29401	28957	32592
1619	0	29380	28985	32592
1620	0	29360	29006	32596
1621	0	29360	29020	32638
1622	0	29372	29052	32612
1623	0	29352	29060	32620
1624	0	29364	29056	32620
1625	0	29348	29060	32596
1626	0	29320	29060	32592
1627	0	29320	29044	32597
1628	0	29305	29040	32592
1629	0	29281	29049	32584
1630	0	29260	29056	32584
1631	0	29220	29031	32576
1632	0	29176	29020	32580
1633	0	29180	29020	32592
1634	0	29200	29020	32592
1635	0	29208	29031	32592
1636	0	29192	29045	32572
1637	0	29184	29060	32576
1638	0	29205	29060	32564
1639	0	29212	29077	32556
1640	0	29212	29104	32556
1641	0	29232	29129	32556
1642	0	29200	29144	32560
1643	0	29200	29144	32584
1644	0	29177	29128	32605
1645	0	29194	29128	32634
1646	0	29240	29142	32628
1647	0	29256	29156	32628
1648	0	29232	29164	32640
1649	0	29184	29168	32640
1650	0	29168	29173	32652
1651	0	29178	29196	32680
1652	0	29208	29185	32696
1653	0	29172	29180	32696
1654	0	29184	29196	32716
1655	0	29192	29216	32728
1656	0	29184	29244	32725
1657	0	29148	29248	32724
1658	0	29148	29284	32716
1659	0	29156	29324	32732
1660	0	29140	29348	32756
1661	0	29160	29364	32760
1662	0	29160	29385	32745
1663	0	29165	29392	32736
1664	0	29168	29400	32728
1665	0	29184	29416	32712
1666	0	29176	29420	32712
1667	0	29196	29448	32696
1668	0	29178	29444	32676
1669	0	29132	29432	32680
1670	0	29096	29440	32672
1671	0	29104	29468	32653
1672	0	29076	29444	32664
1673	0	29080	29416	32656
1674	0	29048	29416	32628
1675	0	29000	29397	32632
1676	0	28958	29436	32632
1677	0	28928	29404	32648
1678	0	28896	29357	32628
1679	0	28896	29276	32612
1680	0	28876	29156	32592
1681	0	28812	29020	32540
1682	0	28660	28740	32488
1683	0	28536	28860	32424
1684	0	28560	29064	32436
1685	0	28628	29204	32504
1686	0	28656	29384	32548
1687	0	28716	29488	32608
1688	0	28776	29534	32640
1689	0	28840	29456	32666
1690	0	28928	29136	32644
1691	0	28796	27996	32589
1692	0	28592	27365	32424
1693	0	28372	29160	32368
1694	0	28528	29632	32528
1695	0	28616	29512	32688
1696	0	28696	29596	32776
1697	0	28816	29732	32800
1698	0	29008	29600	32836
1699	0	29096	29592	32860
1700	0	29144	29732	32864
1701	0	29168	29960	32912
1702	0	29180	29888	32916
1703	0	29156	29948	32920
1704	0	29120	29928	32900
1705	0	29144	29996	32892
1706	0	29132	30132	32892
1707	0	29112	30048	32892
1708	0	29060	29964	32860
1709	0	29024	30016	32844
1710	0	29052	29961	32852
1711	0	29036	30064	32820
1712	0	29080	30104	32824
1713	0	29084	30040	32816
1714	0	29044	30040	32804
1715	0	29020	30045	32800
1716	0	28968	30037	32776
1717	0	28936	30020	32780
1718	0	28964	29992	32740
1719	0	28884	29912	32692
1720	0	28892	29976	32696
1721	0	28840	29972	32661
1722	0	28756	29960	32640
1723	0	28704	30040	32608
1724	0	28680	29928	32604
1725	0	28648	30028	32612
1726	0	28688	30012	32604
1727	0	28680	29952	32576
1728	0	28664	30132	32580
1729	0	28672	30121	32584
1730	0	28704	30004	32588
1731	0	28696	30080	32592
1732	0	28704	30048	32569
1733	0	28692	30036	32576
1734	0	28668	30092	32604
1735	0	28688	30065	32629
1736	0	28716	30052	32617
1737	0	28692	30041	32608
1738	0	28660	30020	32608
1739	0	28584	29972	32612
1740	0	28568	30045	32628
1741	0	28592	30120	32616
1742	0	28656	30072	32605
1743	0	28664	30112	32592
1744	0	28664	30056	32596
1745	0	28684	30072	32584
1746	0	28724	30092	32592
1747	0	28700	30148	32568
1748	0	28652	30140	32588
1749	0	28664	30100	32572
1750	0	28616	30072	32560
1751	0	28584	30160	32540
1752	0	28616	30168	32552
1753	0	28580	30100	32545
1754	0	28504	30116	32528
1755	0	28480	30140	32532
1756	0	28524	30206	32540
1757	0	28548	30232	32532
1758	0	28536	30196	32532
1759	0	28508	30176	32517
1760	0	28520	30220	32504
1761	0	28512	30248	32500
1762	0	28460	30220	32494
1763	0	28480	30220	32480
1764	0	28500	30209	32472
1765	0	28460	30196	32500
1766	0	28384	30192	32516
1767	0	28344	30292	32532
1768	0	28380	30338	32540
1769	0	28424	30329	32544
1770	0	28436	30376	32576
1771	0	28468	30352	32605
1772	0	28448	30344	32633
1773	0	28436	30344	32668
1774	0	28476	30332	32652
1775	0	28480	30276	32644
1776	0	28464	30312	32644
1777	0	28488	30336	32657
1778	0	28444	30372	32672
1779	0	28409	30372	32680
1780	0	28464	30392	32664
1781	0	28432	30460	32656
1782	0	28448	30480	32656
1783	0	28472	30480	32636
1784	0	28512	30512	32656
1785	0	28560	30524	32624
1786	0	28592	30502	32600
1787	0	28572	30512	32604
1788	0	28528	30468	32612
1789	0	28484	30548	32608
1790	0	28472	30609	32616
1791	0	28424	30628	32616
1792	0	28400	30548	32622
1793	0	28444	30608	32604
1794	0	28432	30652	32640
1795	0	28448	30716	32660
1796	0	28480	30744	32640
1797	0	28456	30748	32648
1798	0	28480	30752	32668
1799	0	28524	30764	32696
1800	0	28564	30832	32704
1801	0	28556	30788	32727
1802	0	28508	30756	32716
1803	0	28440	30737	32708
1804	0	28344	30760	32728
1805	0	28308	30744	32708
1806	0	28288	30760	32696
1807	0	28340	30772	32672
1808	0	28328	30764	32696
1809	0	28328	30800	32688
1810	0	28352	30884	32692
1811	0	28349	30864	32688
1812	0	28332	30832	32664
1813	0	28316	30880	32652
1814	0	28336	30848	32648
1815	0	28344	30872	32604
1816	0	28325	30884	32584
1817	0	28264	30897	32576
1818	0	28200	30948	32552
1819	0	28220	30944	32544
1820	0	28272	30924	32528
1821	0	28292	30912	32524
1822	0	28304	30968	32524
1823	0	28292	31020	32528
1824	0	28288	31012	32532
1825	0	28244	30984	32500
1826	0	28176	30948	32480
1827	0	28164	30952	32504
1828	0	28096	30996	32524
1829	0	28072	31004	32504
1830	0	28072	30996	32492
1831	0	28072	30984	32485
1832	0	28080	30976	32476
1833	0	28028	31000	32500
1834	0	28016	31044	32500
1835	0	28072	31072	32472
1836	0	28128	31052	32484
1837	0	28168	30988	32464
1838	0	28156	30616	32452
1839	0	28096	30524	32436
1840	0	28104	30772	32492
1841	0	28105	30960	32512
1842	0	28128	31036	32500
1843	0	28140	30988	32488
1844	0	28104	30948	32460
1845	0	28096	30932	32468
1846	0	28100	31028	32480
1847	0	28088	31029	32464
1848	0	28064	31040	32481
1849	0	28088	31080	32500
1850	0	28144	31076	32484
1851	0	28184	31072	32484
1852	0	28160	31104	32488
1853	0	28104	31062	32484
1854	0	28052	31108	32516
1855	0	28104	31068	32512
1856	0	28136	31052	32488
1857	0	28160	31084	32496
1858	0	28120	31120	32492
1859	0	28116	31176	32513
1860	0	28112	31168	32508
1861	0	28168	31148	32504
1862	0	28204	31152	32496
1863	0	28228	31209	32508
1864	0	28248	31240	32484
1865	0	28224	31196	32476
1866	0	28236	31188	32480
1867	0	28240	31241	32480
1868	0	28256	31292	32496
1869	0	28292	31252	32488
1870	0	28320	31296	32488
1871	0	28308	31292	32484
1872	0	28288	31288	32480
1873	0	28248	31296	32484
1874	0	28232	31300	32490
1875	0	28232	31322	32476
1876	0	28252	31326	32480
1877	0	28252	31368	32472
1878	0	28236	31404	32480
1879	0	28216	31416	32460
1880	0	28212	31408	32468
1881	0	28216	31373	32468
1882	0	28184	31428	32464
1883	0	28148	31448	32472
1884	0	28180	31453	32472
1885	0	28224	31528	32460
1886	0	28220	31532	32452
1887	0	28240	31512	32456
1888	0	28272	31468	32452
1889	0	28272	31492	32432
1890	0	28264	31516	32440
1891	0	28272	31536	32436
1892	0	28292	31528	32392
1893	0	28260	31480	32356
1894	0	28240	31472	32340
1895	0	28236	31512	32336
1896	0	28200	31560	32317
1897	0	28192	31520	32301
1898	0	28192	31476	32284
1899	0	28144	31536	32264
1900	0	28096	31536	32252
1901	0	28062	31512	32244
1902	0	28080	31532	32221
1903	0	28064	31544	32212
1904	0	28061	31552	32212
1905	0	28084	31568	32212
1906	0	28076	31536	32212
1907	0	28056	31577	32240
1908	0	28080	31560	32240
1909	0	28108	31546	32224
1910	0	28096	31552	32232
1911	0	28080	31536	32236
1912	0	28064	31548	32253
1913	0	28096	31568	32260
1914	0	28108	31600	32268
1915	0	28112	31613	32268
1916	0	28105	31616	32276
1917	0	28112	31628	32300
1918	0	28160	31608	32296
1919	0	28204	31548	32304
1920	0	28252	31568	32328
1921	0	28264	31544	32341
1922	0	28256	31580	32352
1923	0	28228	31596	32360
1924	0	28240	31614	32372
1925	0	28240	31628	32386
1926	0	28256	31620	32392
1927	0	28216	31613	32408
1928	0	28188	31648	32416
1929	0	28176	31648	32440
1930	0	28208	31648	32448
1931	0	28184	31645	32457
1932	0	28160	31688	32480
1933	0	28176	31668	32496
1934	0	28189	31644	32496
1935	0	28196	31660	32512
1936	0	28212	31672	32524
1937	0	28208	31648	32540
1938	0	28208	31688	32548
1939	0	28264	31712	32544
1940	0	28225	31717	32528
1941	0	28192	31712	32532
1942	0	28241	31749	32528
1943	0	28232	31712	32528
1944	0	28188	31696	32524
1945	0	28144	31713	32540
1946	0	28152	31696	32536
1947	0	28128	31720	32536
1948	0	28132	31720	32540
1949	0	28136	31752	32544
1950	0	28173	31716	32536
1951	0	28188	31756	32525
1952	0	28152	31788	32512
1953	0	28100	31848	32520
1954	0	28096	31884	32513
1955	0	28104	31908	32509
1956	0	28060	31900	32520
1957	0	28064	31900	32548
1958	0	28060	31928	32556
1959	0	28068	31950	32568
1960	0	28072	31917	32568
1961	0	28084	31928	32565
1962	0	28104	31872	32576
1963	0	28116	31904	32552
1964	0	28112	31896	32544
1965	0	28124	31908	32536
1966	0	28120	31964	32544
1967	0	28100	31976	32532
1968	0	28088	32020	32536
1969	0	28132	32008	32532
1970	0	28140	32000	32509
1971	0	28116	32016	32516
1972	0	28104	32032	32520
1973	0	28096	32056	32508
1974	0	28112	32076	32496
1975	0	28124	32076	32480
1976	0	28116	32080	32500
1977	0	28076	32100	32500
1978	0	28080	32084	32496
1979	0	28088	32080	32512
1980	0	28076	32100	32516
1981	0	28072	32077	32520
1982	0	28077	32072	32532
1983	0	28096	32092	32540
1984	0	28076	32124	32544
1985	0	28088	32100	32552
1986	0	28100	32126	32560
1987	0	28100	32152	32552
1988	0	28096	32148	32568
1989	0	28100	32132	32568
1990	0	28088	32158	32572
1991	0	28116	32152	32564
1992	0	28128	32159	32544
1993	0	28128	32156	32540
1994	0	28121	32172	32552
1995	0	28096	32232	32564
1996	0	28092	32208	32564
1997	0	28068	32228	32564
1998	0	28049	32252	32540
1999	0	28040	32248	32552
2000	0	28072	32208	32552
2001	0	28074	32204	32564
2002	0	28076	32212	32556
2003	0	28062	32228	32580
2004	0	28024	32212	32597
2005	0	28028	32224	32600
2006	0	28024	32190	32600
2007	0	28020	32208	32604
2008	0	28028	32244	32612
2009	0	28028	32263	32596
2010	0	27984	32268	32608
2011	0	27984	32276	32600
2012	0	27988	32260	32600
2013	0	27992	32244	32608
2014	0	28000	32280	32612
2015	0	28008	32284	32628
2016	0	28004	32264	32624
2017	0	28008	32216	32621
2018	0	27984	32209	32648
2019	0	28004	32240	32648
2020	0	28000	32292	32672
2021	0	28024	32320	32668
2022	0	28036	32320	32660
2023	0	28020	32332	32660
2024	0	27988	32328	32673
2025	0	28000	32316	32660
2026	0	28004	32340	32669
2027	0	28052	32352	32672
2028	0	28040	32356	32672
2029	0	28052	32336	32672
2030	0	28040	32316	32688
2031	0	28068	32328	32668
2032	0	28076	32348	32668
2033	0	28092	32340	32664
2034	0	28065	32349	32656
2035	0	28068	32352	32660
2036	0	28080	32368	32660
2037	0	28088	32392	32640
2038	0	28069	32372	32644
2039	0	28068	32352	32622
2040	0	28069	32380	32624
2041	0	28072	32388	32588
2042	0	28052	32404	32584
2043	0	28016	32400	32600
2044	0	28000	32440	32620
2045	0	28028	32412	32608
2046	0	28040	32400	32600
2047	0	28044	32424	32608
2048	0	28044	32456	32612
2049	0	28032	32458	32620
2050	0	28060	32441	32617
2051	0	28060	32448	32616
2052	0	28076	32445	32621
2053	0	28080	32452	32636
2054	0	28096	32452	32628
2055	0	28120	32432	32628
2056	0	28122	32449	32624
2057	0	28168	32488	32620
2058	0	28184	32500	32600
2059	0	28169	32488	32600
2060	0	28152	32513	32592
2061	0	28149	32520	32600
2062	0	28128	32516	32586
2063	0	28176	32536	32605
2064	0	28200	32560	32613
2065	0	28212	32532	32612
2066	0	28172	32509	32604
2067	0	28136	32504	32589
2068	0	28124	32564	32609
2069	0	28088	32576	32604
2070	0	28108	32540	32600
2071	0	28108	32552	32584
2072	0	28116	32560	32580
2073	0	28128	32576	32568
2074	0	28124	32568	32556
2075	0	28088	32544	32540
2076	0	28084	32548	32520
2077	0	28068	32568	32500
2078	0	28060	32556	32496
2079	0	28068	32552	32496
2080	0	28076	32532	32468
2081	0	28064	32584	32473
2082	0	28048	32604	32464
2083	0	28044	32608	32464
2084	0	28068	32616	32452
2085	0	28060	32592	32432
2086	0	28096	32588	32444
2087	0	28104	32620	32464
2088	0	28104	32580	32472
2089	0	28108	32584	32480
2090	0	28124	32608	32504
2091	0	28156	32592	32508
2092	0	28128	32576	32496
2093	0	28125	32584	32512
2094	0	28132	32616	32509
2095	0	28104	32656	32504
2096	0	28101	32608	32496
2097	0	28096	32588	32508
2098	0	28108	32616	32492
2099	0	28101	32656	32496
2100	0	28093	32680	32520
2101	0	28064	32664	32508
2102	0	28072	32640	32504
2103	0	28092	32633	32488
2104	0	28112	32632	32488
2105	0	28120	32608	32472
2106	0	28112	32644	32468
2107	0	28092	32692	32452
2108	0	28072	32700	32448
2109	0	28065	32696	32444
2110	0	28064	32700	32428
2111	0	28048	32720	32400
2112	0	28016	32740	32388
2113	0	27984	32732	32376
2114	0	27968	32736	32360
2115	0	27932	32712	32344
2116	0	27936	32714	32328
2117	0	27952	32740	32325
2118	0	27920	32776	32320
2119	0	27884	32788	32308
2120	0	27869	32764	32312
2121	0	27832	32781	32309
2122	0	27869	32777	32304
2123	0	27873	32752	32300
2124	0	27860	32796	32312
2125	0	27852	32804	32320
2126	0	27864	32896	32320
2127	0	27880	32888	32324
2128	0	27920	32856	32309
2129	0	27928	32876	32292
2130	0	27912	32910	32304
2131	0	27904	32912	32300
2132	0	27920	32916	32293
2133	0	27904	32936	32296
2134	0	27928	32924	32302
2135	0	27924	32897	32285
2136	0	27936	32936	32288
2137	0	27944	32926	32288
2138	0	27944	32912	32288
2139	0	27972	32896	32280
2140	0	27980	32884	32288
2141	0	27984	32893	32312
2142	0	27964	32916	32288
2143	0	27944	32950	32284
2144	0	27932	32940	32280
2145	0	27924	32957	32280
2146	0	27920	32956	32292
2147	0	27932	32960	32296
2148	0	27944	32944	32296
2149	0	27996	32944	32284
2150	0	28009	32968	32276
2151	0	28028	32944	32272
2152	0	28028	32928	32264
2153	0	28032	32960	32272
2154	0	28040	32960	32284
2155	0	28064	32985	32284
2156	0	28068	32996	32280
2157	0	28120	32956	32288
2158	0	28144	32972	32300
2159	0	28152	32976	32304
2160	0	28165	32992	32324
2161	0	28152	32976	32308
2162	0	28152	32992	32318
2163	0	28145	33040	32332
2164	0	28168	33057	32340
2165	0	28176	33052	32344
2166	0	28200	33072	32356
2167	0	28184	33124	32336
2168	0	28144	33080	32348
2169	0	28144	33084	32352
2170	0	28176	33104	32348
2171	0	28176	33092	32336
2172	0	28180	33100	32328
2173	0	28196	33108	32320
2174	0	28232	33100	32304
2175	0	28244	33093	32304
2176	0	28264	33072	32317
2177	0	28240	33092	32324
2178	0	28252	33112	32304
2179	0	28264	33092	32316
2180	0	28308	33064	32304
2181	0	28304	33064	32312
2182	0	28300	33092	32308
2183	0	28280	33080	32320
2184	0	28304	33109	32324
2185	0	28280	33128	32320
2186	0	28272	33093	32318
2187	0	28268	33092	32308
2188	0	28248	33080	32316
2189	0	28248	33113	32312
2190	0	28256	33116	32320
2191	0	28244	33149	32320
2192	0	28260	33116	32340
2193	0	28256	33126	32332
2194	0	28248	33160	32352
2195	0	28244	33172	32360
2196	0	28284	33176	32360
2197	0	28300	33176	32368
2198	0	28276	33192	32360
2199	0	28264	33168	32360
2200	0	28276	33192	32372
2201	0	28285	33192	32372
2202	0	28301	33193	32356
2203	0	28316	33232	32364
2204	0	28340	33249	32368
2205	0	28368	33264	32352
2206	0	28320	33256	32344
2207	0	28248	33224	32321
2208	0	28252	33192	32312
2209	0	28256	33205	32320
2210	0	28253	33212	32320
2211	0	28276	33220	32312
2212	0	28264	33201	32276
2213	0	28189	33208	32264
2214	0	28136	33216	32268
2215	0	28133	33232	32244
2216	0	28124	33264	32232
2217	0	28104	33264	32216
2218	0	28108	33272	32200
2219	0	28125	33276	32196
2220	0	28164	33301	32184
2221	0	28132	33328	32160
2222	0	28132	33320	32168
2223	0	28132	33356	32156
2224	0	28124	33328	32156
2225	0	28152	33297	32160
2226	0	28184	33277	32164
2227	0	28168	33308	32184
2228	0	28176	33376	32196
2229	0	28188	33388	32196
2230	0	28200	33372	32192
2231	0	28156	33376	32192
2232	0	28176	33380	32220
2233	0	28220	33408	32216
2234	0	28240	33404	32200
2235	0	28248	33400	32200
2236	0	28258	33429	32192
2237	0	28280	33476	32192
2238	0	28264	33500	32188
2239	0	28228	33544	32176
2240	0	28216	33556	32157
2241	0	28252	33580	32156
2242	0	28280	33584	32128
2243	0	28298	33537	32108
2244	0	28256	33516	32104
2245	0	28244	33549	32104
2246	0	28300	33593	32112
2247	0	28253	33572	32104
2248	0	28228	33584	32093
2249	0	28272	33608	32084
2250	0	28268	33622	32080
2251	0	28264	33652	32090
2252	0	28236	33660	32064
2253	0	28220	33676	32064
2254	0	28268	33704	32076
2255	0	28240	33680	32048
2256	0	28240	33636	32028
2257	0	28280	33636	32044
2258	0	28256	33680	32048
2259	0	28232	33660	32044
2260	0	28236	33644	32032
2261	0	28244	33629	32024
2262	0	28228	33668	32036
2263	0	28224	33684	32040
2264	0	28273	33740	32044
2265	0	28312	33784	32048
2266	0	28324	33797	32044
2267	0	28316	33768	32040
2268	0	28300	33744	32044
2269	0	28320	33748	32048
2270	0	28320	33781	32060
2271	0	28336	33824	32052
2272	0	28360	33816	32040
2273	0	28412	33828	32060
2274	0	28388	33820	32056
2275	0	28368	33762	32064
2276	0	28412	33808	32056
2277	0	28404	33836	32060
2278	0	28412	33880	32068
2279	0	28480	33908	32056
2280	0	28424	33880	32056
2281	0	28436	33908	32073
2282	0	28448	33880	32051
2283	0	28452	33816	32040
2284	0	28424	33768	32040
2285	0	28416	33848	32088
2286	0	28412	33864	32088
2287	0	28424	33869	32072
2288	0	28412	33825	32056
2289	0	28428	33861	32060
2290	0	28364	33884	32072
2291	0	28384	33916	32077
2292	0	28348	33892	32080
2293	0	28360	33848	32052
2294	0	28380	33844	32048
2295	0	28352	33888	32048
2296	0	28364	33960	32060
2297	0	28388	33984	32056
2298	0	28376	33952	32052
2299	0	28312	33960	32048
2300	0	28324	33912	32024
2301	0	28296	33916	32024
2302	0	28316	33908	32044
2303	0	28292	33932	32064
2304	0	28272	33940	32072
2305	0	28248	33940	32064
2306	0	28240	33928	32064
2307	0	28248	33924	32064
2308	0	28252	33957	32084
2309	0	28304	34036	32084
2310	0	28276	34056	32065
2311	0	28256	34044	32072
2312	0	28277	34000	32056
2313	0	28312	34016	32049
2314	0	28318	34024	32032
2315	0	28349	34072	32060
2316	0	28404	34076	32064
2317	0	28436	34072	32044
2318	0	28424	34040	32048
2319	0	28416	34000	32064
2320	0	28432	34048	32060
2321	0	28432	34080	32054
2322	0	28456	34072	32036
2323	0	28480	34072	32032
2324	0	28452	34124	32024
2325	0	28452	34148	32024
2326	0	28432	34160	32009
2327	0	28480	34168	32000
2328	0	28496	34184	31984
2329	0	28496	34180	31972
2330	0	28464	34196	31997
2331	0	28464	34233	31992
2332	0	28460	34256	31988
2333	0	28448	34249	31976
2334	0	28432	34256	31968
2335	0	28428	34272	31980
2336	0	28448	34276	31983
2337	0	28456	34248	31980
2338	0	28444	34232	31992
2339	0	28476	34252	31976
2340	0	28476	34268	31976
2341	0	28456	34252	31984
2342	0	28468	34264	31988
2343	0	28473	34300	32005
2344	0	28464	34296	32001
2345	0	28464	34288	31988
2346	0	28440	34284	31968
2347	0	28480	34284	31992
2348	0	28476	34288	31988
2349	0	28492	34288	31996
2350	0	28504	34292	32008
2351	0	28488	34297	32020
2352	0	28473	34352	32029
2353	0	28464	34328	32028
2354	0	28452	34324	32032
2355	0	28408	34312	32032
2356	0	28400	34320	32044
2357	0	28396	34344	32040
2358	0	28368	34328	32041
2359	0	28368	34348	32040
2360	0	28340	34352	32032
2361	0	28344	34392	32032
2362	0	28352	34404	32020
2363	0	28368	34404	32052
2364	0	28380	34412	32065
2365	0	28376	34440	32076
2366	0	28344	34452	32076
2367	0	28372	34440	32080
2368	0	28364	34417	32056
2369	0	28356	34429	32060
2370	0	28408	34448	32064
2371	0	28392	34444	32064
2372	0	28440	34468	32072
2373	0	28424	34460	32056
2374	0	28440	34460	32064
2375	0	28452	34445	32064
2376	0	28432	34428	32048
2377	0	28440	34448	32044
2378	0	28476	34488	32024
2379	0	28484	34500	32032
2380	0	28480	34504	32032
2381	0	28432	34488	32020
2382	0	28428	34508	32012
2383	0	28448	34500	31997
2384	0	28460	34532	31992
2385	0	28480	34536	31988
2386	0	28496	34541	31988
2387	0	28516	34560	31996
2388	0	28504	34564	31976
2389	0	28528	34592	31976
2390	0	28572	34584	31964
2391	0	28556	34588	31952
2392	0	28576	34601	31960
2393	0	28570	34588	31948
2394	0	28584	34580	31944
2395	0	28576	34584	31936
2396	0	28608	34592	31949
2397	0	28600	34592	31941
2398	0	28592	34592	31924
2399	0	28584	34588	31940
2400	0	28624	34604	31928
2401	0	28576	34604	31912
2402	0	28544	34620	31932
2403	0	28545	34632	31924
2404	0	28540	34644	31928
2405	0	28536	34656	31908
2406	0	28544	34652	31909
2407	0	28544	34644	31896
2408	0	28574	34668	31888
2409	0	28602	34680	31876
2410	0	28624	34644	31872
2411	0	28616	34648	31876
2412	0	28588	34672	31880
2413	0	28552	34680	31880
2414	0	28528	34676	31864
2415	0	28532	34668	31876
2416	0	28532	34662	31870
2417	0	28520	34632	31872
2418	0	28530	34636	31884
2419	0	28524	34632	31880
2420	0	28516	34628	31888
2421	0	28552	34656	31888
2422	0	28532	34660	31896
2423	0	28536	34656	31893
2424	0	28525	34664	31900
2425	0	28544	34672	31900
2426	0	28540	34664	31892
2427	0	28544	34680	31900
2428	0	28544	34648	31904
2429	0	28540	34648	31904
2430	0	28532	34652	31900
2431	0	28536	34664	31888
2432	0	28532	34645	31888
2433	0	28532	34656	31892
2434	0	28532	34654	31892
2435	0	28556	34686	31900
2436	0	28561	34684	31896
2437	0	28552	34688	31904
2438	0	28584	34696	31908
2439	0	28592	34704	31913
2440	0	28596	34688	31916
2441	0	28612	34680	31908
2442	0	28624	34680	31916
2443	0	28632	34692	31917
2444	0	28628	34712	31928
2445	0	28640	34736	31940
2446	0	28648	34748	31928
2447	0	28601	34728	31920
2448	0	28588	34712	31916
2449	0	28600	34708	31928
2450	0	28584	34720	31924
2451	0	28592	34724	31940
2452	0	28628	34749	31928
2453	0	28645	34768	31924
2454	0	28640	34792	31908
2455	0	28608	34784	31916
2456	0	28584	34784	31912
2457	0	28600	34796	31908
2458	0	28620	34780	31912
2459	0	28613	34776	31916
2460	0	28624	34768	31916
2461	0	28616	34772	31908
2462	0	28648	34788	31904
2463	0	28660	34780	31908
2464	0	28636	34788	31900
2465	0	28636	34800	31880
2466	0	28652	34812	31868
2467	0	28640	34824	31860
2468	0	28632	34836	31864
2469	0	28660	34828	31848
2470	0	28676	34840	31844
2471	0	28684	34852	31844
2472	0	28708	34848	31833
2473	0	28676	34828	31812
2474	0	28660	34829	31816
2475	0	28673	34840	31808
2476	0	28720	34856	31788
2477	0	28688	34848	31788
2478	0	28692	34862	31752
2479	0	28688	34872	31740
2480	0	28688	34860	31740
2481	0	28716	34884	31736
2482	0	28728	34908	31733
2483	0	28724	34900	31741
2484	0	28716	34908	31740
2485	0	28732	34920	31740
2486	0	28720	34936	31737
2487	0	28732	34940	31736
2488	0	28728	34928	31736
2489	0	28752	34910	31744
2490	0	28752	34908	31740
2491	0	28752	34904	31744
2492	0	28753	34888	31764
2493	0	28760	34896	31752
2494	0	28776	34904	31752
2495	0	28804	34904	31768
2496	0	28776	34892	31776
2497	0	28792	34908	31768
2498	0	28840	34904	31768
2499	0	28848	34905	31768
2500	0	28876	34916	31768
2501	0	28868	34916	31768
2502	0	28840	34917	31752
2503	0	28816	34936	31752
2504	0	28865	34936	31764
2505	0	28900	34964	31768
2506	0	28904	34964	31768
2507	0	28928	34988	31756
2508	0	28920	34984	31744
2509	0	28908	34972	31752
2510	0	28900	34984	31748
2511	0	28928	34976	31724
2512	0	28948	35016	31724
2513	0	28948	34988	31696
2514	0	28888	34976	31680
2515	0	28904	35000	31676
2516	0	28916	35008	31689
2517	0	28936	35017	31688
2518	0	28904	35028	31679
2519	0	28944	35033	31664
2520	0	28944	35024	31644
2521	0	28892	34992	31644
2522	0	28892	35020	31640
2523	0	28880	35024	31640
2524	0	28864	35040	31644
2525	0	28872	35040	31636
2526	0	28880	35052	31628
2527	0	28848	35064	31628
2528	0	28852	35060	31628
2529	0	28872	35036	31612
2530	0	28885	35056	31621
2531	0	28908	35068	31636
2532	0	28872	35084	31640
2533	0	28850	35100	31648
2534	0	28852	35096	31661
2535	0	28872	35104	31668
2536	0	28944	35132	31700
2537	0	28944	35124	31710
2538	0	28904	35116	31712
2539	0	28900	35100	31732
2540	0	28932	35100	31732
2541	0	28924	35093	31744
2542	0	28912	35112	31736
2543	0	28932	35136	31760
2544	0	28948	35144	31772
2545	0	28992	35152	31776
2546	0	28976	35144	31764
2547	0	28932	35148	31773
2548	0	28952	35168	31765
2549	0	28968	35173	31752
2550	0	28892	35162	31748
2551	0	28908	35164	31736
2552	0	28916	35176	31736
2553	0	28920	35200	31736
2554	0	28952	35220	31744
2555	0	28953	35228	31736
2556	0	28940	35224	31744
2557	0	28896	35248	31736
2558	0	28896	35272	31748
2559	0	28873	35268	31736
2560	0	28832	35256	31735
2561	0	28833	35248	31725
2562	0	28864	35240	31748
2563	0	28884	35252	31752
2564	0	28880	35256	31772
2565	0	28884	35260	31768
2566	0	28872	35268	31752
2567	0	28860	35272	31760
2568	0	28860	35272	31756
2569	0	28888	35296	31768
2570	0	28908	35300	31784
2571	0	28924	35300	31788
2572	0	28912	35324	31788
2573	0	28960	35313	31792
2574	0	28984	35288	31792
2575	0	28988	35276	31796
2576	0	28992	35304	31813
2577	0	29020	35328	31833
2578	0	29004	35304	31808
2579	0	28976	35297	31808
2580	0	28956	35296	31808
2581	0	29008	35316	31821
2582	0	29052	35325	31821
2583	0	29044	35335	31809
2584	0	29053	35325	31796
2585	0	29048	35300	31780
2586	0	29036	35293	31773
2587	0	29040	35300	31772
2588	0	29048	35304	31773
2589	0	29108	35336	31780
2590	0	29112	35353	31774
2591	0	29120	35356	31758
2592	0	29121	35380	31764
2593	0	29120	35376	31768
2594	0	29144	35392	31744
2595	0	29152	35380	31736
2596	0	29156	35376	31756
2597	0	29128	35368	31748
2598	0	29100	35340	31745
2599	0	29080	35325	31732
2600	0	29100	35352	31736
2601	0	29120	35358	31724
2602	0	29100	35378	31712
2603	0	29120	35392	31708
2604	0	29136	35396	31708
2605	0	29140	35400	31712
2606	0	29136	35404	31712
2607	0	29152	35416	31724
2608	0	29132	35412	31740
2609	0	29145	35412	31736
2610	0	29192	35432	31744
2611	0	29232	35400	31772
2612	0	29232	35408	31776
2613	0	29220	35392	31773
2614	0	29184	35381	31777
2615	0	29168	35380	31768
2616	0	29208	35382	31768
2617	0	29200	35392	31772
2618	0	29184	35392	31792
2619	0	29196	35412	31804
2620	0	29224	35424	31792
2621	0	29236	35448	31796
2622	0	29224	35432	31792
2623	0	29192	35436	31785
2624	0	29200	35444	31789
2625	0	29228	35448	31784
2626	0	29244	35460	31800
2627	0	29268	35476	31800
2628	0	29236	35484	31785
2629	0	29221	35496	31776
2630	0	29256	35492	31756
2631	0	29248	35496	31737
2632	0	29212	35484	31720
2633	0	29240	35512	31716
2634	0	29292	35508	31724
2635	0	29280	35516	31720
2636	0	29256	35535	31704
2637	0	29248	35508	31696
2638	0	29248	35528	31696
2639	0	29272	35536	31712
2640	0	29248	35544	31716
2641	0	29184	35540	31692
2642	0	29244	35592	31700
2643	0	29296	35608	31696
2644	0	29348	35684	31712
2645	0	29332	35668	31704
2646	0	29252	35632	31680
2647	0	29288	35620	31656
2648	0	29308	35632	31664
2649	0	29324	35616	31664
2650	0	29272	35640	31672
2651	0	29260	35660	31688
2652	0	29320	35688	31708
2653	0	29392	35712	31696
2654	0	29348	35688	31692
2655	0	29288	35676	31677
2656	0	29288	35664	31676
2657	0	29288	35672	31676
2658	0	29304	35652	31688
2659	0	29368	35652	31700
2660	0	29324	35648	31696
2661	0	29268	35641	31696
2662	0	29328	35676	31720
2663	0	29360	35700	31716
2664	0	29312	35708	31712
2665	0	29280	35709	31708
2666	0	29284	35724	31709
2667	0	29272	35743	31704
2668	0	29284	35743	31700
2669	0	29276	35732	31700
2670	0	29324	35748	31724
2671	0	29328	35740	31732
2672	0	29236	35728	31719
2673	0	29216	35716	31700
2674	0	29272	35728	31701
2675	0	29328	35716	31685
2676	0	29288	35721	31676
2677	0	29352	35732	31676
2678	0	29404	35744	31692
2679	0	29404	35756	31708
2680	0	29348	35744	31696
2681	0	29320	35760	31708
2682	0	29352	35768	31712
2683	0	29436	35788	31712
2684	0	29352	35756	31696
2685	0	29276	35736	31701
2686	0	29324	35748	31696
2687	0	29385	35768	31712
2688	0	29344	35756	31704
2689	0	29344	35776	31736
2690	0	29396	35804	31736
2691	0	29396	35816	31700
2692	0	29352	35792	31676
2693	0	29344	35780	31680
2694	0	29360	35792	31680
2695	0	29292	35792	31680
2696	0	29316	35788	31680
2697	0	29392	35800	31684
2698	0	29412	35804	31676
2699	0	29428	35804	31664
2700	0	29424	35796	31672
2701	0	29468	35805	31680
2702	0	29480	35808	31696
2703	0	29448	35832	31712
2704	0	29488	35836	31700
2705	0	29514	35844	31708
2706	0	29516	35828	31712
2707	0	29484	35784	31704
2708	0	29468	35768	31704
2709	0	29488	35744	31697
2710	0	29484	35752	31704
2711	0	29544	35776	31710
2712	0	29532	35776	31712
2713	0	29537	35792	31712
2714	0	29540	35820	31720
2715	0	29544	35828	31724
2716	0	29528	35832	31724
2717	0	29480	35820	31704
2718	0	29404	35808	31696
2719	0	29412	35820	31704
2720	0	29468	35816	31720
2721	0	29512	35832	31732
2722	0	29500	35832	31732
2723	0	29476	35848	31716
2724	0	29532	35868	31732
2725	0	29552	35860	31728
2726	0	29514	35864	31717
2727	0	29552	35876	31708
2728	0	29560	35884	31712
2729	0	29624	35880	31708
2730	0	29624	35876	31704
2731	0	29616	35869	31704
2732	0	29604	35868	31693
2733	0	29592	35892	31700
2734	0	29608	35900	31713
2735	0	29669	35924	31717
2736	0	29656	35936	31696
2737	0	29568	35921	31696
2738	0	29508	35936	31677
2739	0	29565	35960	31688
2740	0	29524	35940	31676
2741	0	29560	35952	31676
2742	0	29617	35952	31672
2743	0	29624	35950	31672
2744	0	29608	35928	31664
2745	0	29597	35940	31656
2746	0	29612	35960	31684
2747	0	29680	35976	31680
2748	0	29620	35964	31672
2749	0	29608	35976	31664
2750	0	29632	36016	31664
2751	0	29656	36020	31668
2752	0	29661	36008	31664
2753	0	29632	36000	31656
2754	0	29624	36000	31680
2755	0	29649	36016	31688
2756	0	29692	36032	31696
2757	0	29632	36004	31676
2758	0	29528	36000	31660
2759	0	29596	36028	31680
2760	0	29648	36024	31672
2761	0	29648	36024	31680
2762	0	29600	36028	31680
2763	0	29636	36032	31712
2764	0	29672	36044	31716
2765	0	29684	36048	31700
2766	0	29648	36052	31676
2767	0	29656	36057	31664
2768	0	29648	36057	31668
2769	0	29652	36084	31656
2770	0	29656	36088	31664
2771	0	29668	36120	31664
2772	0	29672	36133	31656
2773	0	29664	36116	31632
2774	0	29668	36144	31636
2775	0	29720	36144	31632
2776	0	29684	36142	31620
2777	0	29640	36136	31608
2778	0	29672	36152	31629
2779	0	29740	36176	31655
2780	0	29768	36184	31656
2781	0	29724	36160	31641
2782	0	29637	36140	31640
2783	0	29662	36144	31664
2784	0	29752	36156	31685
2785	0	29760	36140	31680
2786	0	29744	36136	31696
2787	0	29704	36136	31684
2788	0	29752	36144	31696
2789	0	29812	36152	31688
2790	0	29836	36145	31708
2791	0	29868	36164	31720
2792	0	29785	36137	31704
2793	0	29732	36152	31704
2794	0	29748	36136	31716
2795	0	29840	36144	31724
2796	0	29820	36148	31700
2797	0	29864	36168	31732
2798	0	29928	36164	31732
2799	0	29864	36176	31712
2800	0	29888	36180	31720
2801	0	29893	36184	31704
2802	0	29888	36164	31692
2803	0	29888	36196	31709
2804	0	29900	36208	31712
2805	0	29880	36196	31696
2806	0	29812	36184	31680
2807	0	29848	36204	31672
2808	0	29920	36220	31696
2809	0	29860	36220	31696
2810	0	29844	36244	31720
2811	0	29920	36260	31716
2812	0	29920	36256	31712
2813	0	29904	36252	31709
2814	0	29804	36220	31692
2815	0	29824	36252	31720
2816	0	29824	36228	31724
2817	0	29892	36232	31740
2818	0	29940	36240	31752
2819	0	29936	36232	31732
2820	0	29956	36240	31752
2821	0	30000	36253	31756
2822	0	30000	36252	31728
2823	0	29936	36240	31712
2824	0	29920	36256	31732
2825	0	29952	36268	31713
2826	0	29973	36280	31700
2827	0	29996	36292	31708
2828	0	29952	36300	31688
2829	0	29992	36332	31710
2830	0	30032	36313	31718
2831	0	30072	36320	31713
2832	0	30052	36328	31724
2833	0	29976	36336	31697
2834	0	29873	36340	31693
2835	0	29920	36340	31728
2836	0	29968	36332	31732
2837	0	30000	36320	31720
2838	0	30016	36336	31736
2839	0	30016	36352	31752
2840	0	30116	36376	31768
2841	0	30060	36369	31754
2842	0	30032	36392	31752
2843	0	30044	36364	31736
2844	0	30032	36344	31729
2845	0	30136	36361	31736
2846	0	30180	36368	31760
2847	0	30232	36392	31792
2848	0	30217	36384	31780
2849	0	30192	36412	31792
2850	0	30172	36393	31768
2851	0	30196	36392	31765
2852	0	30220	36404	31756
2853	0	30192	36400	31756
2854	0	30180	36376	31732
2855	0	30136	36392	31736
2856	0	30160	36400	31744
2857	0	30152	36396	31712
2858	0	30140	36418	31700
2859	0	30248	36408	31700
2860	0	30272	36416	31684
2861	0	30244	36420	31664
2862	0	30248	36420	31664
2863	0	30284	36424	31660
2864	0	30248	36448	31646
2865	0	30196	36456	31640
2866	0	30188	36452	31604
2867	0	30280	36472	31632
2868	0	30324	36480	31660
2869	0	30305	36488	31656
2870	0	30280	36472	31632
2871	0	30216	36472	31632
2872	0	30192	36444	31625
2873	0	30240	36460	31636
2874	0	30344	36464	31656
2875	0	30308	36464	31628
2876	0	30388	36460	31648
2877	0	30356	36464	31636
2878	0	30312	36480	31628
2879	0	30352	36484	31652
2880	0	30400	36496	31644
2881	0	30352	36488	31616
2882	0	30372	36504	31608
2883	0	30345	36508	31599
2884	0	30298	36488	31580
2885	0	30300	36496	31584
2886	0	30368	36496	31608
2887	0	30384	36488	31620
2888	0	30360	36500	31616
2889	0	30424	36520	31664
2890	0	30456	36516	31676
2891	0	30352	36512	31629
2892	0	30356	36524	31616
2893	0	30352	36536	31620
2894	0	30344	36540	31620
2895	0	30368	36532	31644
2896	0	30349	36528	31628
2897	0	30408	36524	31616
2898	0	30404	36524	31616
2899	0	30468	36552	31652
2900	0	30528	36588	31653
2901	0	30472	36585	31644
2902	0	30428	36588	31620
2903	0	30312	36544	31572
2904	0	30384	36573	31628
2905	0	30480	36532	31652
2906	0	30489	36520	31665
2907	0	30488	36544	31672
2908	0	30396	36536	31672
2909	0	30404	36568	31712
2910	0	30472	36552	31708
2911	0	30480	36544	31708
2912	0	30392	36528	31692
2913	0	30408	36568	31710
2914	0	30465	36568	31708
2915	0	30464	36592	31709
2916	0	30480	36572	31704
2917	0	30472	36567	31713
2918	0	30460	36588	31720
2919	0	30492	36588	31724
2920	0	30480	36552	31708
2921	0	30592	36584	31732
2922	0	30596	36584	31732
2923	0	30596	36600	31736
2924	0	30564	36584	31716
2925	0	30508	36565	31672
2926	0	30497	36596	31700
2927	0	30624	36576	31720
2928	0	30608	36580	31704
2929	0	30604	36580	31692
2930	0	30620	36604	31704
2931	0	30604	36584	31688
2932	0	30480	36568	31656
2933	0	30532	36564	31676
2934	0	30612	36584	31704
2935	0	30628	36584	31712
2936	0	30608	36604	31710
2937	0	30600	36628	31712
2938	0	30536	36608	31680
2939	0	30492	36640	31652
2940	0	30512	36652	31660
2941	0	30553	36652	31693
2942	0	30592	36676	31700
2943	0	30536	36684	31692
2944	0	30540	36692	31677
2945	0	30496	36732	31680
2946	0	30532	36764	31688
2947	0	30552	36752	31704
2948	0	30584	36768	31708
2949	0	30620	36764	31705
2950	0	30584	36768	31696
2951	0	30552	36760	31696
2952	0	30572	36764	31693
2953	0	30626	36744	31696
2954	0	30628	36740	31690
2955	0	30612	36740	31688
2956	0	30560	36728	31676
2957	0	30590	36760	31696
2958	0	30696	36760	31704
2959	0	30670	36737	31712
2960	0	30576	36752	31665
2961	0	30552	36788	31680
2962	0	30644	36764	31692
2963	0	30752	36756	31716
2964	0	30684	36748	31704
2965	0	30684	36768	31708
2966	0	30668	36772	31672
2967	0	30661	36804	31680
2968	0	30708	36800	31684
2969	0	30668	36796	31664
2970	0	30752	36816	31697
2971	0	30756	36788	31704
2972	0	30724	36806	31712
2973	0	30736	36804	31720
2974	0	30752	36816	31724
2975	0	30792	36836	31756
2976	0	30832	36824	31788
2977	0	30888	36832	31808
2978	0	30761	36824	31764
2979	0	30752	36804	31790
2980	0	30784	36800	31808
2981	0	30832	36808	31812
2982	0	30816	36776	31804
2983	0	30736	36768	31781
2984	0	30760	36784	31808
2985	0	30736	36764	31800
2986	0	30752	36764	31797
2987	0	30776	36788	31793
2988	0	30784	36772	31776
2989	0	30864	36773	31805
2990	0	30980	36784	31848
2991	0	30892	36772	31805
2992	0	30836	36796	31800
2993	0	30848	36792	31784
2994	0	30816	36816	31776
2995	0	30848	36824	31772
2996	0	30872	36808	31780
2997	0	30912	36828	31780
2998	0	30848	36804	31752
2999	0	30852	36828	31748
3000	0	30916	36844	31777
3001	0	30992	36848	31776
3002	0	30988	36884	31780
3003	0	31016	36892	31784
3004	0	30952	36900	31768
3005	0	30864	36892	31760
3006	0	30888	36892	31776
3007	0	30872	36896	31780
3008	0	30832	36920	31776
3009	0	30864	36920	31800
3010	0	30860	36900	31820
3011	0	30864	36880	31842
3012	0	30904	36872	31880
3013	0	30920	36884	31878
3014	0	30964	36868	31896
3015	0	30888	36844	31856
3016	0	30844	36861	31855
3017	0	30976	36884	31901
3018	0	31020	36896	31912
3019	0	30996	36908	31924
3020	0	30857	36892	31868
3021	0	30824	36904	31880
3022	0	30940	36880	31897
3023	0	30924	36872	31881
3024	0	30928	36884	31876
3025	0	30984	36912	31904
3026	0	31024	36916	31928
3027	0	31004	36904	31904
3028	0	30964	36936	31880
3029	0	31056	36928	31913
3030	0	31048	36908	31904
3031	0	31004	36902	31904
3032	0	30940	36904	31882
3033	0	30864	36928	31868
3034	0	30908	36940	31868
3035	0	30948	36956	31868
3036	0	30940	36936	31852
3037	0	30968	36949	31844
3038	0	31068	36957	31864
3039	0	31136	36956	31892
3040	0	31116	36956	31868
3041	0	31068	36976	31856
3042	0	31020	36996	31832
3043	0	30984	37020	31812
3044	0	30952	37008	31804
3045	0	30996	37004	31849
3046	0	31040	36964	31868
3047	0	31068	36984	31904
3048	0	31120	37004	31900
3049	0	31120	37028	31904
3050	0	31092	37022	31886
3051	0	30972	37040	31844
3052	0	30936	37048	31856
3053	0	31088	37016	31908
3054	0	31144	36988	31920
3055	0	31100	36989	31912
3056	0	31052	37029	31888
3057	0	31068	37052	31876
3058	0	31024	37053	31872
3059	0	31016	37037	31868
3060	0	30968	37016	31848
3061	0	31016	37024	31856
3062	0	31040	37056	31836
3063	0	31092	37068	31836
3064	0	31128	37088	31852
3065	0	31080	37084	31824
3066	0	31052	37072	31792
3067	0	31028	37109	31704
3068	0	31128	37120	31716
3069	0	31112	37120	31684
3070	0	31124	37144	31680
3071	0	31112	37132	31648
3072	0	31136	37180	31664
3073	0	31088	37212	31640
3074	0	31096	37200	31648
3075	0	31164	37182	31672
3076	0	31196	37192	31732
3077	0	31208	37208	31756
3078	0	31204	37208	31776
3079	0	31156	37212	31776
3080	0	31132	37192	31812
3081	0	31136	37176	31832
3082	0	31216	37160	31885
3083	0	31213	37152	31904
3084	0	31244	37144	31908
3085	0	31224	37120	31932
3086	0	31224	37116	31944
3087	0	31192	37112	31952
3088	0	31184	37092	31933
3089	0	31216	37088	31968
3090	0	31256	37072	31996
3091	0	31260	37028	32004
3092	0	31232	37008	32036
3093	0	31248	37024	32044
3094	0	31292	37016	32068
3095	0	31290	37008	32084
3096	0	31296	37012	32068
3097	0	31304	37017	32076
3098	0	31284	37008	32084
3099	0	31304	36992	32097
3100	0	31361	36984	32092
3101	0	31328	36976	32092
3102	0	31288	36976	32104
3103	0	31312	36972	32112
3104	0	31360	36944	32120
3105	0	31364	36936	32132
3106	0	31352	36944	32108
3107	0	31336	36948	32116
3108	0	31340	36944	32124
3109	0	31344	36952	32096
3110	0	31376	36956	32121
3111	0	31376	36952	32093
3112	0	31388	36984	32096
3113	0	31392	36984	32100
3114	0	31392	36972	32113
3115	0	31360	37008	32080
3116	0	31364	37009	32100
3117	0	31400	37012	32112
3118	0	31456	37012	32152
3119	0	31408	37000	32136
3120	0	31384	37000	32136
3121	0	31388	36992	32136
3122	0	31432	36976	32156
3123	0	31385	36996	32152
3124	0	31357	37040	32160
3125	0	31420	37032	32184
3126	0	31412	37004	32144
3127	0	31412	37004	32177
3128	0	31416	36989	32160
3129	0	31424	37025	32164
3130	0	31436	37016	32172
3131	0	31408	37020	32128
3132	0	31448	37013	32132
3133	0	31436	37028	32108
3134	0	31400	37024	32104
3135	0	31448	37020	32108
3136	0	31472	36980	32132
3137	0	31422	36980	32148
3138	0	31440	36964	32116
3139	0	31412	36996	32096
3140	0	31432	37000	32128
3141	0	31416	37012	32116
3142	0	31448	37044	32144
3143	0	31400	37056	32116
3144	0	31364	37056	32068
3145	0	31296	37052	32032
3146	0	31368	37080	32032
3147	0	31460	37089	32072
3148	0	31408	37108	32020
3149	0	31312	37124	31984
3150	0	31344	37172	31956
3151	0	31381	37200	31965
3152	0	31392	37168	31944
3153	0	31408	37196	31920
3154	0	31472	37248	31934
3155	0	31488	37280	31940
3156	0	31500	37264	31933
3157	0	31468	37261	31901
3158	0	31576	37268	31936
3159	0	31456	37278	31876
3160	0	31480	37340	31956
3161	0	31496	37308	31948
3162	0	31513	37348	31924
3163	0	31424	37364	31904
3164	0	31440	37384	31928
3165	0	31464	37368	31956
3166	0	31540	37356	32001
3167	0	31580	37348	32006
3168	0	31592	37348	32032
3169	0	31560	37352	32005
3170	0	31560	37344	32024
3171	0	31612	37384	32036
3172	0	31536	37388	31984
3173	0	31568	37344	32004
3174	0	31552	37316	31984
3175	0	31648	37304	32032
3176	0	31748	37320	32064
3177	0	31800	37308	32048
3178	0	31720	37300	32008
3179	0	31720	37277	32048
3180	0	31716	37304	32016
3181	0	31760	37324	32032
3182	0	31744	37336	32032
3183	0	31792	37308	32086
3184	0	31836	37293	32072
3185	0	31776	37304	32088
3186	0	31840	37272	32168
3187	0	31876	37224	32181
3188	0	31848	37260	32200
3189	0	31992	37288	32304
3190	0	31928	37281	32256
3191	0	31824	37284	32244
3192	0	31800	37280	32264
3193	0	31876	37260	32300
3194	0	31976	37215	32352
3195	0	31924	37228	32330
3196	0	31960	37247	32336
3197	0	31928	37260	32288
3198	0	31964	37272	32272
3199	0	31996	37260	32276
3200	0	31996	37296	32256
3201	0	32040	37320	32248
3202	0	32036	37320	32176
3203	0	32096	37316	32212
3204	0	32172	37288	32209
3205	0	32184	37304	32232
3206	0	32160	37344	32196
3207	0	32044	37368	32164
3208	0	32024	37352	32204
3209	0	32152	37348	32212
3210	0	32156	37336	32228
3211	0	32124	37356	32208
3212	0	32224	37344	32264
3213	0	32120	37328	32256
3214	0	32196	37280	32344
3215	0	32256	37212	32356
3216	0	32216	37152	32328
3217	0	32080	37053	32320
3218	0	32172	36912	32392
3219	0	32392	36848	32525
3220	0	32380	36896	32484
3221	0	32380	37104	32328
3222	0	32364	37268	32152
3223	0	32368	37312	32160
3224	0	32480	37380	32192
3225	0	32432	37501	32136
3226	0	32424	37444	32116
3227	0	32376	37244	32192
3228	0	32432	37312	32152
3229	0	32424	37372	32144
3230	0	32364	37516	32076
3231	0	32368	37524	32152
3232	0	32396	37500	32192
3233	0	32348	37420	32180
3234	0	32280	37372	32252
3235	0	32276	37288	32316
3236	0	32308	37328	32196
3237	0	32280	37352	32232
3238	0	32336	37405	32228
3239	0	32480	37544	32168
3240	0	32488	37584	32128
3241	0	32568	37576	32136
3242	0	32484	37576	32096
3243	0	32416	37552	32112
3244	0	32368	37496	32128
3245	0	32344	37520	32140
3246	0	32448	37376	32276
3247	0	32472	37520	32172
3248	0	32396	37520	32160
3249	0	32404	37573	32152
3250	0	32492	37632	32264
3251	0	32640	37624	32380
3252	0	32704	37556	32425
3253	0	32540	37500	32376
3254	0	32388	37480	32368
3255	0	32392	37496	32392
3256	0	32368	37456	32448
3257	0	32376	37420	32476
3258	0	32416	37472	32444
3259	0	32432	37436	32520
3260	0	32520	37476	32488
3261	0	32473	37520	32448
3262	0	32500	37488	32472
3263	0	32489	37468	32500
3264	0	32520	37568	32520
3265	0	32473	37548	32472
3266	0	32448	37500	32468
3267	0	32480	37440	32556
3268	0	32529	37372	32612
3269	0	32576	37357	32596
3270	0	32576	37344	32608
3271	0	32600	37404	32597
3272	0	32576	37448	32542
3273	0	32568	37448	32480
3274	0	32584	37420	32472
3275	0	32624	37388	32504
3276	0	32656	37380	32508
3277	0	32664	37392	32520
3278	0	32672	37392	32513
3279	0	32700	37404	32528
3280	0	32696	37424	32528
3281	0	32708	37436	32484
3282	0	32664	37392	32452
3283	0	32668	37364	32476
3284	0	32696	37364	32517
3285	0	32704	37388	32557
3286	0	32720	37400	32561
3287	0	32728	37404	32592
3288	0	32736	37416	32608
3289	0	32728	37444	32624
3290	0	32704	37472	32636
3291	0	32676	37472	32608
3292	0	32648	37456	32568
3293	0	32648	37460	32569
3294	0	32656	37452	32568
3295	0	32656	37428	32536
3296	0	32664	37452	32532
3297	0	32672	37476	32540
3298	0	32672	37484	32532
3299	0	32676	37508	32544
3300	0	32676	37536	32552
3301	0	32690	37572	32572
3302	0	32688	37590	32588
3303	0	32696	37608	32616
3304	0	32688	37636	32628
3305	0	32688	37672	32628
3306	0	32676	37704	32628
3307	0	32660	37716	32620
3308	0	32628	37728	32586
3309	0	32636	37736	32592
3310	0	32640	37728	32600
3311	0	32628	37724	32584
3312	0	32620	37732	32574
3313	0	32624	37720	32564
3314	0	32624	37724	32544
3315	0	32628	37704	32540
3316	0	32616	37688	32542
3317	0	32604	37680	32552
3318	0	32596	37673	32552
3319	0	32584	37640	32556
3320	0	32592	37636	32592
3321	0	32580	37632	32600
3322	0	32568	37628	32592
3323	0	32552	37600	32577
3324	0	32524	37488	32556
3325	0	32528	37436	32520
3326	0	32544	37448	32524
3327	0	32560	37436	32500
3328	0	32552	37380	32468
3329	0	32584	37392	32440
3330	0	32576	37389	32436
3331	0	32564	37388	32448
3332	0	32560	37400	32476
3333	0	32564	37368	32460
3334	0	32536	37352	32501
3335	0	32508	37328	32536
3336	0	32464	37272	32552
3337	0	32448	37256	32508
3338	0	32448	37300	32564
3339	0	32436	37241	32608
3340	0	32460	37240	32584
3341	0	32424	37256	32608
3342	0	32448	37232	32600
3343	0	32424	37224	32656
3344	0	32452	37272	32668
3345	0	32456	37284	32637
3346	0	32484	37328	32660
3347	0	32448	37320	32658
3348	0	32456	37352	32648
3349	0	32448	37416	32652
3350	0	32476	37392	32692
3351	0	32464	37364	32656
3352	0	32468	37376	32668
3353	0	32452	37340	32644
3354	0	32472	37368	32616
3355	0	32464	37404	32660
3356	0	32436	37352	32680
3357	0	32436	37324	32696
3358	0	32448	37325	32697
3359	0	32440	37304	32712
3360	0	32464	37288	32793
3361	0	32460	37312	32744
3362	0	32440	37336	32776
3363	0	32436	37324	32780
3364	0	32440	37324	32820
3365	0	32440	37304	32860
3366	0	32424	37292	32840
3367	0	32393	37308	32776
3368	0	32428	37332	32756
3369	0	32448	37344	32776
3370	0	32456	37336	32788
3371	0	32464	37236	32852
3372	0	32436	37254	32847
3373	0	32432	37240	32860
3374	0	32452	37188	32892
3375	0	32416	37244	32885
3376	0	32424	37280	32880
3377	0	32408	37488	32824
3378	0	32392	37668	32780
3379	0	32400	37480	32792
3380	0	32380	37328	32829
3381	0	32360	37304	32832
3382	0	32352	37408	32817
3383	0	32352	37560	32784
3384	0	32364	37464	32776
3385	0	32368	37512	32796
3386	0	32380	37632	32784
3387	0	32388	37576	32780
3388	0	32376	37628	32764
3389	0	32389	37532	32757
3390	0	32368	37656	32800
3391	0	32384	37620	32788
3392	0	32320	37604	32796
3393	0	32392	37976	32833
3394	0	32412	37844	32869
3395	0	32344	37472	32860
3396	0	32328	37612	32864
3397	0	32320	37664	32821
3398	0	32321	37568	32892
3399	0	32364	37816	32889
3400	0	32320	37872	32860
3401	0	32304	37664	32860
3402	0	32292	37462	32856
3403	0	32297	37626	32852
3404	0	32332	37872	32864
3405	0	32320	37532	32872
3406	0	32304	37392	32840
3407	0	32348	37836	32880
3408	0	32328	37616	32830
3409	0	32320	37640	32872
3410	0	32324	37740	32852
3411	0	32328	37632	32885
3412	0	32344	37588	32856
3413	0	32332	37564	32828
3414	0	32332	37660	32832
3415	0	32344	37592	32864
3416	0	32420	38076	32808
3417	0	32404	37712	32792
3418	0	32356	37412	32784
3419	0	32416	37508	32826
3420	0	32424	37553	32796
3421	0	32396	37416	32816
3422	0	32408	37456	32796
3423	0	32416	37404	32857
3424	0	32456	37397	32860
3425	0	32404	37476	32805
3426	0	32388	37358	32829
3427	0	32400	37288	32846
3428	0	32396	37336	32860
3429	0	32428	37457	32836
3430	0	32420	37308	32848
3431	0	32416	37280	32868
3432	0	32429	37384	32820
3433	0	32412	37388	32813
3434	0	32408	37292	32809
3435	0	32432	37340	32756
3436	0	32444	37340	32752
3437	0	32472	37360	32684
3438	0	32460	37368	32696
3439	0	32476	37372	32652
3440	0	32416	37344	32584
3441	0	32416	37277	32624
3442	0	32456	37252	32692
3443	0	32440	37256	32665
3444	0	32452	37220	32700
3445	0	32480	37244	32700
3446	0	32464	37312	32733
3447	0	32448	37284	32724
3448	0	32460	37196	32752
3449	0	32472	37236	32840
3450	0	32472	37228	32872
3451	0	32472	37260	32848
3452	0	32464	37256	32884
3453	0	32448	37244	32904
3454	0	32480	37256	32868
3455	0	32472	37232	32884
3456	0	32480	37188	32892
3457	0	32488	37204	32876
3458	0	32496	37164	32916
3459	0	32524	37152	32932
3460	0	32516	37224	32916
3461	0	32512	37224	32940
3462	0	32520	37216	32904
3463	0	32512	37224	32936
3464	0	32488	37240	32960
3465	0	32496	37248	32952
3466	0	32480	37224	32988
3467	0	32480	37224	32992
3468	0	32464	37272	33020
3469	0	32496	37248	33064
3470	0	32484	37288	33000
3471	0	32472	37276	33000
3472	0	32472	37308	33010
3473	0	32476	37328	33016
3474	0	32460	37304	33020
3475	0	32488	37300	33056
3476	0	32484	37320	33040
3477	0	32484	37308	33024
3478	0	32472	37268	33036
3479	0	32465	37264	33064
3480	0	32464	37268	33080
3481	0	32452	37220	33116
3482	0	32464	37216	33160
3483	0	32504	37240	33156
3484	0	32480	37224	33148
3485	0	32472	37252	33136
3486	0	32460	37204	33148
3487	0	32472	37184	33149
3488	0	32472	37180	33164
3489	0	32472	37320	33117
3490	0	32460	37320	33137
3491	0	32464	37312	33134
3492	0	32472	37377	33092
3493	0	32484	37300	33120
3494	0	32492	37288	33156
3495	0	32472	37272	33160
3496	0	32496	37404	33148
3497	0	32484	37496	33164
3498	0	32472	37448	33160
3499	0	32464	37372	33176
3500	0	32488	37400	33172
3501	0	32488	37492	33185
3502	0	32500	37676	33188
3503	0	32448	37596	33184
3504	0	32464	37548	33192
3505	0	32488	37528	33196
3506	0	32452	37376	33184
3507	0	32464	37404	33168
3508	0	32452	37552	33137
3509	0	32432	37617	33128
3510	0	32412	37548	33108
3511	0	32392	37376	33112
3512	0	32428	37372	33092
3513	0	32452	37552	33080
3514	0	32464	37652	33028
3515	0	32448	37560	33008
3516	0	32448	37564	33000
3517	0	32420	37464	32996
3518	0	32428	37412	32984
3519	0	32484	37600	32976
3520	0	32465	37592	32968
3521	0	32464	37576	32960
3522	0	32440	37548	32968
3523	0	32468	37624	32976
3524	0	32469	37680	32976
3525	0	32464	37608	32952
3526	0	32468	37620	32928
3527	0	32440	37512	32952
3528	0	32436	37524	32944
3529	0	32412	37428	33008
3530	0	32436	37440	32960
3531	0	32456	37504	32952
3532	0	32424	37432	32932
3533	0	32464	37340	32965
3534	0	32469	37292	33016
3535	0	32508	37292	33076
3536	0	32520	37336	33052
3537	0	32540	37424	33048
3538	0	32544	37448	33052
3539	0	32524	37452	33040
3540	0	32512	37452	33020
3541	0	32488	37376	33052
3542	0	32536	37332	33088
3543	0	32568	37240	33120
3544	0	32592	37253	33136
3545	0	32576	37216	33184
3546	0	32592	37212	33164
3547	0	32585	37152	33176
3548	0	32620	37096	33204
3549	0	32624	37108	33212
3550	0	32624	37152	33244
3551	0	32640	37192	33241
3552	0	32636	37260	33196
3553	0	32624	37320	33144
3554	0	32612	37356	33117
3555	0	32580	37324	33108
3556	0	32592	37236	33140
3557	0	32584	37176	33168
3558	0	32608	37172	33188
3559	0	32628	37212	33184
3560	0	32632	37236	33156
3561	0	32632	37176	33168
3562	0	32632	37180	33184
3563	0	32632	37260	33200
3564	0	32612	37248	33200
3565	0	32596	37256	33156
3566	0	32584	37276	33128
3567	0	32584	37244	33144
3568	0	32556	37124	33232
3569	0	32572	37016	33221
3570	0	32600	37100	33228
3571	0	32600	37208	33224
3572	0	32593	37244	33156
3573	0	32588	37244	33166
3574	0	32564	37180	33344
3575	0	32608	37188	33360
3576	0	32568	37231	33348
3577	0	32600	37380	33308
3578	0	32576	37405	33316
3579	0	32552	37304	33252
3580	0	32520	37248	33260
3581	0	32548	37356	33260
3582	0	32536	37440	33220
3583	0	32492	37452	33312
3584	0	32528	37368	33287
3585	0	32540	37460	33240
3586	0	32512	37612	33248
3587	0	32496	37532	33244
3588	0	32496	37500	33237
3589	0	32528	37564	33212
3590	0	32509	37468	33328
3591	0	32512	37528	33272
3592	0	32480	37556	33308
3593	0	32488	37520	33336
3594	0	32472	37468	33320
3595	0	32424	37440	33296
3596	0	32464	37556	33216
3597	0	32457	37624	33324
3598	0	32440	37512	33312
3599	0	32456	37460	33316
3600	0	32480	37588	33256
3601	0	32440	37444	33320
3602	0	32480	37384	33304
3603	0	32468	37464	33344
3604	0	32456	37448	33336
3605	0	32460	37592	33280
3606	0	32472	37696	33166
3607	0	32448	37580	33216
3608	0	32424	37320	33288
3609	0	32477	37436	33304
3610	0	32508	37560	33268
3611	0	32412	37380	33336
3612	0	32480	37472	33264
3613	0	32528	37668	33180
3614	0	32492	37588	33221
3615	0	32476	37464	33216
3616	0	32464	37356	33268
3617	0	32504	37488	33218
3618	0	32504	37565	33229
3619	0	32500	37472	33244
3620	0	32540	37500	33152
3621	0	32592	37456	33140
3622	0	32504	37392	33160
3623	0	32576	37404	33156
3624	0	32520	37308	33178
3625	0	32568	37400	33092
3626	0	32562	37380	33120
3627	0	32524	37312	33040
3628	0	32708	37352	33112
3629	0	32489	37232	33024
3630	0	32704	37272	33036
3631	0	32540	37217	33112
3632	0	32680	37213	33016
3633	0	32600	37288	33148
3634	0	32500	37044	33084
3635	0	32800	37220	33196
3636	0	32648	37320	33096
3637	0	32712	37292	33136
3638	0	32552	37204	33136
3639	0	32700	37184	33116
3640	0	32600	37245	33240
3641	0	32652	37216	33104
3642	0	32632	37192	33140
3643	0	32624	37224	33152
3644	0	32588	37212	33116
3645	0	32652	37280	33272
3646	0	32572	37168	33140
3647	0	32780	37229	33165
3648	0	32488	37156	33181
3649	0	32612	37112	33272
3650	0	32649	37168	33320
3651	0	32632	37232	33240
3652	0	32600	37244	33396
3653	0	32576	37140	33244
3654	0	32536	37120	33312
3655	0	32516	37184	33420
3656	0	32720	37224	33380
3657	0	32608	37244	33292
3658	0	32572	37228	33356
3659	0	32472	37152	33316
3660	0	32688	37213	33416
3661	0	32512	37204	33264
3662	0	32740	37248	33368
3663	0	32592	37244	33256
3664	0	32712	37312	33320
3665	0	32536	37276	33188
3666	0	32552	37328	33240
3667	0	32688	37326	33168
3668	0	32468	37328	33292
3669	0	32596	37328	33169
3670	0	32644	37392	33236
3671	0	32616	37416	33160
3672	0	32412	37369	33256
3673	0	32784	37424	33236
3674	0	32440	37444	33214
3675	0	32744	37500	33228
3676	0	32456	37477	33240
3677	0	32532	37460	33228
3678	0	32680	37504	33232
3679	0	32481	37508	33280
3680	0	32456	37488	33188
3681	0	32568	37488	33272
3682	0	32520	37496	33264
3683	0	32508	37465	33248
3684	0	32528	37488	33300
3685	0	32324	37453	33268
3686	0	32580	37412	33320
3687	0	32504	37392	33312
3688	0	32576	37476	33425
3689	0	32312	37408	33284
3690	0	32517	37420	33360
3691	0	32624	37465	33384
3692	0	32356	37456	33328
3693	0	32528	37380	33444
3694	0	32624	37404	33424
3695	0	32376	37360	33324
3696	0	32568	37432	33400
3697	0	32536	37444	33412
3698	0	32514	37400	33340
3699	0	32384	37360	33325
3700	0	32652	37424	33440
3701	0	32228	37280	33320
3702	0	32600	37332	33312
3703	0	32516	37408	33412
3704	0	32336	37404	33312
3705	0	32488	37356	33248
3706	0	32520	37322	33436
3707	0	32556	37364	33324
3708	0	32276	37252	33316
3709	0	32450	37260	33296
3710	0	32528	37328	33340
3711	0	32352	37336	33340
3712	0	32556	37312	33420
3713	0	32504	37284	33316
3714	0	32472	37273	33248
3715	0	32616	37316	33412
3716	0	32324	37260	33290
3717	0	32624	37304	33504
3718	0	32392	37256	33292
3719	0	32712	37252	33512
3720	0	32408	37216	33400
3721	0	32360	37116	33420
3722	0	32320	37132	33324
3723	0	32416	37168	33296
3724	0	32464	37208	33304
3725	0	32464	37244	33273
3726	0	32476	37200	33300
3727	0	32512	37228	33305
3728	0	32532	37220	33344
3729	0	32540	37212	33340
3730	0	32504	37200	33380
3731	0	32528	37220	33389
3732	0	31984	35961	33056
3733	0	31864	35956	33764
3734	0	32568	37200	33664
3735	0	32413	37520	33384
3736	0	32448	37360	33364
3737	0	32460	37256	33412
3738	0	32404	37244	33512
3739	0	32372	37252	33572
3740	0	32380	37192	33652
3741	0	32332	37236	33640
3742	0	32212	37316	33516
3743	0	32240	37336	33448
3744	0	32368	37292	33604
3745	0	32328	37432	33589
3746	0	32320	37520	33596
3747	0	32224	37468	33488
3748	0	32244	37400	33460
3749	0	32280	37404	33444
3750	0	32309	37476	33472
3751	0	32272	37508	33500
3752	0	32264	37512	33512
3753	0	32288	37560	33573
3754	0	32250	37578	33568
3755	0	32220	37590	33532
3756	0	32232	37639	33500
3757	0	32240	37632	33516
3758	0	32152	37680	33464
3759	0	32124	37680	33424
3760	0	32216	37540	33544
3761	0	32244	37488	33672
3762	0	32160	37628	33600
3763	0	32172	37640	33580
3764	0	32192	37608	33632
3765	0	32248	37624	33800
3766	0	32136	37652	33712
3767	0	32084	37588	33624
3768	0	32148	37584	33645
3769	0	32200	37608	33720
3770	0	32072	37596	33632
3771	0	32180	37468	33764
3772	0	32104	37548	33697
3773	0	32108	37604	33645
3774	0	32136	37620	33612
3775	0	32192	37640	33572
3776	0	32124	37228	33600
3777	0	32152	37422	33536
3778	0	32240	37505	33476
3779	0	32225	37524	33428
3780	0	32340	37640	33416
3781	0	32328	37564	33449
3782	0	32328	37508	33476
3783	0	32369	37652	33464
3784	0	32436	37828	33452
3785	0	32464	37688	33508
3786	0	32472	37740	33556
3787	0	32468	37608	33600
3788	0	32480	37600	33680
3789	0	32588	37616	33792
3790	0	32248	37452	33637
3791	0	32468	37364	33756
3792	0	32493	37360	33748
3793	0	32492	37460	33672
3794	0	32364	37437	33540
3795	0	32664	37476	33728
3796	0	32324	37084	33484
3797	0	32104	37020	33396
3798	0	32384	37149	33448
3799	0	32364	37192	33432
3800	0	32256	37064	33316
3801	0	32332	37100	33332
3802	0	32344	37068	33344
3803	0	32396	37112	33448
3804	0	32416	37076	33452
3805	0	32320	37024	33420
3806	0	32360	37108	33428
3807	0	32312	37184	33444
3808	0	32240	37149	33476
3809	0	32368	37224	33509
3810	0	32388	37288	33525
3811	0	32288	37272	33492
3812	0	32348	37325	33504
3813	0	32344	37244	33512
3814	0	32304	37184	33520
3815	0	32336	37256	33549
3816	0	32360	37332	33540
3817	0	32300	37288	33560
3818	0	32304	37276	33584
3819	0	32340	37324	33588
3820	0	32328	37348	33600
3821	0	32304	37353	33608
3822	0	32221	37204	33608
3823	0	32296	37208	33608
3824	0	32308	37208	33620
3825	0	32281	37253	33593
3826	0	32292	37208	33584
3827	0	32320	37240	33584
3828	0	32300	37268	33584
3829	0	32288	37185	33592
3830	0	32316	37144	33605
3831	0	32288	37152	33592
3832	0	32248	37192	33580
3833	0	32264	37252	33572
3834	0	32320	37309	33580
3835	0	32260	37268	33572
3836	0	32276	37280	33600
3837	0	32256	37280	33596
3838	0	32244	37340	33608
3839	0	32248	37356	33640
3840	0	32252	37336	33632
3841	0	32196	37344	33580
3842	0	32232	37384	33604
3843	0	32236	37416	33620
3844	0	32236	37424	33660
3845	0	32236	37360	33636
3846	0	32152	37352	33584
3847	0	31672	37240	33280
3848	0	31740	37149	33184
3849	0	32152	37304	33324
3850	0	32128	37312	33456
3851	0	32172	37336	33584
3852	0	32145	37304	33664
3853	0	32160	37288	33724
3854	0	32224	37332	33796
3855	0	32208	37340	33822
3856	0	32240	37360	33892
3857	0	32224	37388	33960
3858	0	32201	37392	34004
3859	0	32160	37368	33984
3860	0	32120	37344	33904
3861	0	32156	37380	33884
3862	0	32192	37408	33880
3863	0	32184	37405	33848
3864	0	32160	37404	33840
3865	0	32164	37384	33848
3866	0	32184	37308	33836
3867	0	32236	37336	33816
3868	0	32248	37340	33833
3869	0	32276	37324	33820
3870	0	32280	37328	33840
3871	0	32272	37320	33800
3872	0	32256	37296	33764
3873	0	32248	37308	33692
3874	0	32256	37296	33672
3875	0	32256	37276	33644
3876	0	32264	37252	33620
3877	0	32276	37276	33648
3878	0	32297	37244	33672
3879	0	32332	37232	33668
3880	0	32384	37244	33648
3881	0	32360	37224	33664
3882	0	32328	37168	33700
3883	0	32340	37128	33728
3884	0	32344	37148	33730
3885	0	32368	37132	33732
3886	0	32352	37164	33704
3887	0	32372	37180	33724
3888	0	32356	37124	33712
3889	0	32368	37068	33724
3890	0	32377	37044	33765
3891	0	32396	37004	33760
3892	0	32388	37008	33736
3893	0	32432	37049	33688
3894	0	32432	37068	33680
3895	0	32456	37072	33644
3896	0	32448	37056	33661
3897	0	32420	36988	33664
3898	0	32421	37021	33632
3899	0	32456	37020	33644
3900	0	32456	37004	33652
3901	0	32476	37028	33620
3902	0	32524	37044	33609
3903	0	32504	37072	33600
3904	0	32488	37068	33588
3905	0	32472	37044	33616
3906	0	32448	37004	33637
3907	0	32456	37008	33648
3908	0	32496	37044	33628
3909	0	32504	37052	33648
3910	0	32508	37024	33648
3911	0	32524	37016	33617
3912	0	32536	36993	33616
3913	0	32540	36988	33628
3914	0	32536	36980	33648
3915	0	32552	36968	33672
3916	0	32552	36984	33704
3917	0	32540	36992	33716
3918	0	32528	37028	33720
3919	0	32496	37072	33716
3920	0	32488	37080	33712
3921	0	32500	37096	33716
3922	0	32504	37132	33708
3923	0	32508	37168	33704
3924	0	32500	37172	33695
3925	0	32493	37197	33700
3926	0	32496	37248	33680
3927	0	32492	37240	33692
3928	0	32480	37278	33695
3929	0	32472	37276	33708
3930	0	32480	37300	33728
3931	0	32488	37316	33728
3932	0	32484	37336	33709
3933	0	32496	37328	33704
3934	0	32492	37328	33708
3935	0	32480	37308	33711
3936	0	32452	37277	33796
3937	0	32408	37149	33924
3938	0	32344	37028	33992
3939	0	32344	37060	34032
3940	0	32364	37176	33992
3941	0	32372	37260	33956
3942	0	32376	37276	33904
3943	0	32401	37276	33832
3944	0	32432	37292	33816
3945	0	32424	37256	33784
3946	0	32420	37212	33740
3947	0	32432	37208	33752
3948	0	32440	37228	33713
3949	0	32468	37292	33684
3950	0	32508	37348	33668
3951	0	32492	37320	33684
3952	0	32480	37308	33688
3953	0	32488	37332	33668
3954	0	32484	37340	33668
3955	0	32476	37312	33680
3956	0	32484	37284	33696
3957	0	32492	37284	33688
3958	0	32504	37281	33680
3959	0	32488	37272	33692
3960	0	32468	37248	33720
3961	0	32468	37244	33728
3962	0	32480	37264	33724
3963	0	32480	37276	33720
3964	0	32468	37312	33708
3965	0	32484	37288	33704
3966	0	32500	37272	33712
3967	0	32524	37288	33684
3968	0	32544	37300	33688
3969	0	32544	37304	33676
3970	0	32540	37336	33656
3971	0	32536	37308	33672
3972	0	32548	37280	33704
3973	0	32552	37304	33720
3974	0	32548	37312	33704
3975	0	32528	37288	33724
3976	0	32520	37280	33748
3977	0	32528	37320	33748
3978	0	32512	37272	33780
3979	0	32496	37268	33776
3980	0	32488	37264	33800
3981	0	32511	37256	33796
3982	0	32480	37224	33800
3983	0	32480	37272	33808
3984	0	32484	37312	33808
3985	0	32488	37305	33804
3986	0	32492	37284	33812
3987	0	32472	37261	33840
3988	0	32480	37256	33856
3989	0	32488	37293	33848
3990	0	32492	37292	33844
3991	0	32488	37328	33828
3992	0	32512	37320	33796
3993	0	32513	37224	33832
3994	0	32488	37213	33824
3995	0	32440	37336	33828
3996	0	32436	37464	33800
3997	0	32424	37504	33792
3998	0	32432	37488	33804
3999	0	32460	37440	33809
4000	0	32440	37392	33864
4001	0	32408	37440	33876
4002	0	32376	37440	33872
4003	0	32376	37356	33880
4004	0	32376	37360	33900
4005	0	32396	37368	33936
4006	0	32408	37400	33932
4007	0	32396	37368	33952
4008	0	32376	37332	33976
4009	0	32424	37364	33980
4010	0	32416	37340	33980
4011	0	32440	37288	33984
4012	0	32476	37328	33980
4013	0	32460	37308	33964
4014	0	32452	37232	33936
4015	0	32456	37260	33917
4016	0	32436	37232	33912
4017	0	32448	37148	33924
4018	0	32440	37204	33924
4019	0	32428	37317	33900
4020	0	32448	37240	33868
4021	0	32488	37280	33848
4022	0	32500	37245	33848
4023	0	32480	37276	33864
4024	0	32456	37228	33864
4025	0	32456	37284	33871
4026	0	32440	37292	33852
4027	0	32448	37304	33864
4028	0	32448	37324	33856
4029	0	32436	37356	33856
4030	0	32448	37348	33840
4031	0	32436	37356	33840
4032	0	32432	37404	33828
4033	0	32412	37352	33828
4034	0	32428	37336	33840
4035	0	32440	37384	33836
4036	0	32440	37348	33832
4037	0	32440	37340	33809
4038	0	32424	37352	33796
4039	0	32432	37328	33760
4040	0	32428	37320	33768
4041	0	32440	37292	33772
4042	0	32460	37292	33796
4043	0	32444	37300	33800
4044	0	32408	37276	33800
4045	0	32408	37252	33820
4046	0	32412	37256	33836
4047	0	32408	37240	33856
4048	0	32416	37204	33852
4049	0	32448	37204	33860
4050	0	32468	37240	33879
4051	0	32472	37216	33876
4052	0	32456	37156	33880
4053	0	32436	37164	33868
4054	0	32416	37185	33856
4055	0	32440	37160	33856
4056	0	32440	37180	33840
4057	0	32448	37156	33816
4058	0	32432	37184	33793
4059	0	32428	37196	33760
4060	0	32464	37176	33741
4061	0	32480	37132	33736
4062	0	32500	37144	33732
4063	0	32512	37176	33716
4064	0	32548	37296	33704
4065	0	32520	37448	33660
4066	0	32520	37500	33632
4067	0	32484	37488	33616
4068	0	32448	37500	33589
4069	0	32480	37460	33608
4070	0	32532	37392	33640
4071	0	32532	37360	33660
4072	0	32480	37380	33648
4073	0	32464	37396	33636
4074	0	32484	37412	33612
4075	0	32516	37388	33616
4076	0	32528	37364	33612
4077	0	32508	37332	33632
4078	0	32520	37312	33664
4079	0	32516	37304	33688
4080	0	32528	37320	33696
4081	0	32524	37341	33692
4082	0	32528	37336	33693
4083	0	32496	37320	33696
4084	0	32528	37400	33664
4085	0	32556	37508	33604
4086	0	32513	37580	33508
4087	0	32484	37624	33412
4088	0	32540	37616	33400
4089	0	32596	37597	33400
4090	0	32564	37596	33372
4091	0	32592	37592	33376
4092	0	32612	37592	33392
4093	0	32648	37576	33404
4094	0	32620	37588	33400
4095	0	32592	37569	33432
4096	0	32620	37536	33476
4097	0	32604	37504	33517
4098	0	32632	37468	33560
4099	0	32620	37450	33560
4100	0	32608	37388	33600
4101	0	32608	37376	33624
4102	0	32600	37336	33636
4103	0	32600	37276	33664
4104	0	32576	37256	33685
4105	0	32568	37244	33684
4106	0	32568	37216	33696
4107	0	32536	37188	33693
4108	0	32552	37200	33697
4109	0	32552	37216	33668
4110	0	32560	37204	33660
4111	0	32552	37224	33648
4112	0	32560	37208	33636
4113	0	32568	37228	33636
4114	0	32600	37220	33644
4115	0	32584	37208	33636
4116	0	32608	37224	33624
4117	0	32617	37240	33630
4118	0	32600	37236	33612
4119	0	32616	37236	33620
4120	0	32616	37245	33612
4121	0	32608	37260	33608
4122	0	32608	37256	33608
4123	0	32620	37240	33588
4124	0	32668	37276	33590
4125	0	32668	37268	33580
4126	0	32656	37260	33576
4127	0	32664	37261	33572
4128	0	32664	37276	33568
4129	0	32672	37308	33568
4130	0	32676	37288	33566
4131	0	32676	37268	33568
4132	0	32684	37232	33572
4133	0	32684	37256	33552
4134	0	32668	37268	33548
4135	0	32676	37244	33556
4136	0	32680	37248	33548
4137	0	32720	37260	33540
4138	0	32736	37276	33528
4139	0	32732	37264	33528
4140	0	32748	37252	33528
4141	0	32758	37240	33528
4142	0	32800	37278	33505
4143	0	32828	37320	33488
4144	0	32792	37292	33472
4145	0	32808	37296	33469
4146	0	32836	37304	33488
4147	0	32804	37288	33488
4148	0	32800	37260	33488
4149	0	32804	37248	33480
4150	0	32816	37240	33500
4151	0	32816	37236	33508
4152	0	32824	37232	33520
4153	0	32820	37204	33520
4154	0	32828	37180	33540
4155	0	32820	37208	33552
4156	0	32832	37200	33544
4157	0	32864	37212	33560
4158	0	32900	37224	33556
4159	0	32896	37228	33548
4160	0	32912	37208	33520
4161	0	32976	37204	33520
4162	0	33000	37216	33532
4163	0	33008	37208	33544
4164	0	32968	37236	33556
4165	0	32976	37276	33540
4166	0	32992	37284	33528
4167	0	33000	37272	33512
4168	0	33040	37292	33516
4169	0	33088	37292	33508
4170	0	33060	37320	33508
4171	0	33016	37304	33484
4172	0	33084	37316	33492
4173	0	33072	37300	33492
4174	0	33152	37321	33496
4175	0	33244	37312	33492
4176	0	33324	37296	33476
4177	0	33232	37304	33460
4178	0	33244	37368	33440
4179	0	33148	37368	33437
4180	0	33044	37340	33428
4181	0	32964	37312	33372
4182	0	32960	37288	33376
4183	0	33016	37224	33368
4184	0	33081	37212	33392
4185	0	33064	37184	33400
4186	0	33080	37176	33408
4187	0	33080	37208	33400
4188	0	33088	37196	33408
4189	0	33096	37192	33404
4190	0	33062	37212	33412
4191	0	33044	37196	33416
4192	0	33096	37224	33436
4193	0	33136	37240	33452
4194	0	33144	37232	33438
4195	0	33156	37224	33428
4196	0	33104	37204	33400
4197	0	33192	37256	33408
4198	0	33236	37288	33428
4199	0	33272	37312	33396
4200	0	33288	37312	33360
4201	0	33352	37328	33356
4202	0	33320	37320	33328
4203	0	33328	37337	33340
4204	0	33344	37348	33360
4205	0	33273	37340	33336
4206	0	33320	37312	33333
4207	0	33276	37244	33296
4208	0	33400	37276	33316
4209	0	33416	37288	33352
4210	0	33332	37309	33360
4211	0	33516	37320	33432
4212	0	33524	37336	33444
4213	0	33432	37364	33456
4214	0	33472	37333	33508
4215	0	33480	37308	33501
4216	0	33540	37340	33536
4217	0	33576	37300	33556
4218	0	33480	37308	33588
4219	0	33480	37296	33588
4220	0	33588	37304	33588
4221	0	33592	37284	33624
4222	0	33556	37324	33636
4223	0	33548	37336	33656
4224	0	33572	37364	33672
4225	0	33648	37320	33704
4226	0	33664	37304	33716
4227	0	33652	37268	33736
4228	0	33684	37260	33784
4229	0	33728	37320	33813
4230	0	33728	37312	33800
4231	0	33720	37352	33856
4232	0	33728	37324	33852
4233	0	33616	37348	33896
4234	0	33568	37308	33880
4235	0	33600	37260	33864
4236	0	33644	37256	33912
4237	0	33776	37244	33948
4238	0	33700	37256	33960
4239	0	33884	37280	33992
4240	0	33776	37308	34040
4241	0	33776	37272	34013
4242	0	33824	37256	34056
4243	0	33956	37244	34112
4244	0	33896	37272	34112
4245	0	33848	37316	34112
4246	0	33980	37296	34152
4247	0	34020	37296	34152
4248	0	33896	37244	34108
4249	0	34032	37220	34128
4250	0	34144	37188	34124
4251	0	34132	37176	34112
4252	0	34100	37168	34052
4253	0	34144	37192	34012
4254	0	34200	37192	34016
4255	0	34232	37204	34028
4256	0	34284	37208	34020
4257	0	34292	37204	34000
4258	0	34300	37188	34000
4259	0	34368	37160	33956
4260	0	34340	37176	33940
4261	0	34376	37168	33948
4262	0	34324	37148	33900
4263	0	34336	37176	33872
4264	0	34408	37189	33864
4265	0	34328	37212	33856
4266	0	34336	37216	33872
4267	0	34328	37216	33848
4268	0	34264	37232	33804
4269	0	34328	37213	33792
4270	0	34316	37160	33784
4271	0	34384	37133	33796
4272	0	34380	37160	33876
4273	0	34304	37208	33849
4274	0	34336	37172	33804
4275	0	34364	37148	33804
4276	0	34364	37165	33828
4277	0	34404	37132	33789
4278	0	34424	37096	33784
4279	0	34508	37080	33792
4280	0	34536	37072	33808
4281	0	34496	37084	33793
4282	0	34504	37068	33736
4283	0	34484	37025	33744
4284	0	34508	37020	33776
4285	0	34532	37000	33796
4286	0	34520	37008	33776
4287	0	34552	36956	33760
4288	0	34564	36936	33792
4289	0	34553	36944	33816
4290	0	34576	36928	33832
4291	0	34560	36897	33808
4292	0	34632	36888	33833
4293	0	34596	36916	33840
4294	0	34612	36938	33868
4295	0	34616	36948	33870
4296	0	34600	36928	33868
4297	0	34584	36896	33908
4298	0	34624	36887	33912
4299	0	34616	36872	33924
4300	0	34640	36872	33952
4301	0	34656	36868	33965
4302	0	34624	36832	33949
4303	0	34624	36836	33952
4304	0	34628	36836	33932
4305	0	34644	36844	33944
4306	0	34680	36824	33976
4307	0	34696	36829	33981
4308	0	34760	36813	33988
4309	0	34756	36824	33996
4310	0	34756	36832	34008
4311	0	34752	36848	34024
4312	0	34752	36824	34036
4313	0	34768	36800	34016
4314	0	34780	36824	34016
4315	0	34780	36848	34016
4316	0	34784	36820	34028
4317	0	34792	36785	34046
4318	0	34800	36792	34044
4319	0	34840	36808	34036
4320	0	34844	36800	34048
4321	0	34820	36800	34056
4322	0	34832	36780	34060
4323	0	34840	36792	34076
4324	0	34848	36792	34076
4325	0	34848	36812	34080
4326	0	34864	36816	34096
4327	0	34884	36828	34104
4328	0	34880	36844	34088
4329	0	34888	36816	34100
4330	0	34872	36808	34088
4331	0	34897	36836	34080
4332	0	34928	36824	34064
4333	0	34928	36800	34048
4334	0	34920	36800	34044
4335	0	34948	36800	34036
4336	0	34928	36792	34028
4337	0	34920	36776	34012
4338	0	34928	36772	33984
4339	0	34936	36756	33976
4340	0	34952	36728	33982
4341	0	34968	36720	33968
4342	0	34952	36720	33976
4343	0	34956	36716	33976
4344	0	34952	36716	33972
4345	0	34952	36720	33980
4346	0	34948	36728	33956
4347	0	34960	36744	33956
4348	0	34988	36748	33960
4349	0	34976	36752	33964
4350	0	34980	36756	33956
4351	0	35004	36764	33948
4352	0	35004	36776	33952
4353	0	35008	36764	33972
4354	0	35008	36776	33944
4355	0	35020	36788	33949
4356	0	35024	36768	33949
4357	0	35024	36744	33952
4358	0	35032	36765	33944
4359	0	35040	36764	33932
4360	0	35040	36736	33924
4361	0	35024	36740	33902
4362	0	35016	36724	33872
4363	0	35064	36465	33592
4364	0	35192	36392	33728
4365	0	35240	36548	33868
4366	0	35264	36737	33920
4367	0	35264	36836	33848
4368	0	35252	36876	33857
4369	0	35208	36926	33868
4370	0	35192	36936	33881
4371	0	35168	36908	33912
4372	0	35132	36960	33976
4373	0	35096	36948	33976
4374	0	35076	36912	33992
4375	0	35080	36900	34012
4376	0	35100	36948	34092
4377	0	35088	36928	34080
4378	0	35088	36904	34080
4379	0	35072	36908	34088
4380	0	35060	36920	34056
4381	0	35048	36892	33996
4382	0	35056	36878	34036
4383	0	35072	36892	34064
4384	0	35096	36904	34100
4385	0	35080	36892	34072
4386	0	35080	36860	34048
4387	0	35072	36852	34055
4388	0	35088	36840	34060
4389	0	35112	36848	34080
4390	0	35112	36888	34092
4391	0	35128	36846	34056
4392	0	35148	36836	34104
4393	0	35160	36852	34120
4394	0	35161	36856	34112
4395	0	35152	36812	34112
4396	0	35160	36808	34133
4397	0	35152	36816	34140
4398	0	35168	36828	34128
4399	0	35168	36828	34112
4400	0	35176	36800	34088
4401	0	35232	36692	34052
4402	0	35300	36492	33972
4403	0	35304	36420	33952
4404	0	35228	36508	34020
4405	0	35188	36564	34040
4406	0	35180	36684	34076
4407	0	35224	36668	34028
4408	0	35224	36712	34012
4409	0	35199	36880	34045
4410	0	35192	36856	34056
4411	0	35204	36936	34116
4412	0	35200	36988	34072
4413	0	35224	36924	34044
4414	0	35216	36976	34064
4415	0	35192	37016	34132
4416	0	35204	37012	34142
4417	0	35220	36948	34124
4418	0	35197	36908	34120
4419	0	35216	36904	34144
4420	0	35196	36868	34144
4421	0	35185	36848	34144
4422	0	35188	36820	34140
4423	0	35208	36784	34088
4424	0	35208	36760	34052
4425	0	35196	36748	34028
4426	0	35208	36748	34032
4427	0	35224	36724	34010
4428	0	35220	36744	34008
4429	0	35240	36768	33988
4430	0	35232	36808	34000
4431	0	35236	36804	33960
4432	0	35264	36808	33944
4433	0	35292	36784	33920
4434	0	35296	36820	33936
4435	0	35300	36792	33896
4436	0	35320	36780	33892
4437	0	35312	36821	33908
4438	0	35296	36800	33872
4439	0	35312	36788	33880
4440	0	35328	36780	33868
4441	0	35316	36756	33836
4442	0	35308	36736	33852
4443	0	35272	36720	33884
4444	0	35252	36680	33852
4445	0	35264	36684	33900
4446	0	35268	36656	33896
4447	0	35268	36620	33901
4448	0	35264	36604	33880
4449	0	35264	36596	33848
4450	0	35244	36620	33876
4451	0	35240	36628	33896
4452	0	35248	36596	33856
4453	0	35272	36624	33864
4454	0	35272	36648	33904
4455	0	35260	36637	33856
4456	0	35288	36644	33852
4457	0	35312	36664	33856
4458	0	35300	36652	33832
4459	0	35320	36608	33789
4460	0	35312	36628	33788
4461	0	35336	36640	33807
4462	0	35348	36661	33800
4463	0	35340	36640	33764
4464	0	35364	36632	33756
4465	0	35368	36656	33796
4466	0	35360	36684	33804
4467	0	35384	36664	33792
4468	0	35368	36672	33792
4469	0	35380	36696	33792
4470	0	35376	36688	33800
4471	0	35376	36688	33820
4472	0	35368	36688	33828
4473	0	35356	36696	33860
4474	0	35352	36685	33885
4475	0	35344	36692	33892
4476	0	35344	36680	33912
4477	0	35328	36696	33908
4478	0	35332	36704	33928
4479	0	35304	36696	33912
4480	0	35312	36696	33948
4481	0	35304	36704	33932
4482	0	35300	36708	33916
4483	0	35304	36732	33940
4484	0	35316	36724	33928
4485	0	35328	36736	33924
4486	0	35348	36740	33916
4487	0	35356	36760	33956
4488	0	35360	36780	33944
4489	0	35384	36744	33912
4490	0	35376	36756	33916
4491	0	35388	36752	33916
4492	0	35400	36765	33904
4493	0	35404	36764	33912
4494	0	35384	36767	33940
4495	0	35400	36776	33936
4496	0	35388	36756	33912
4497	0	35392	36748	33901
4498	0	35384	36728	33912
4499	0	35376	36720	33916
4500	0	35380	36704	33900
4501	0	35400	36712	33904
4502	0	35428	36700	33904
4503	0	35416	36672	33904
4504	0	35420	36632	33904
4505	0	35432	36616	33904
4506	0	35404	36592	33916
4507	0	35424	36584	33932
4508	0	35436	36588	33932
4509	0	35404	36596	33956
4510	0	35380	36620	33944
4511	0	35364	36612	33916
4512	0	35336	36605	33936
4513	0	35296	36612	33940
4514	0	35296	36604	33944
4515	0	35304	36476	33872
4516	0	35348	36420	33857
4517	0	35364	36456	33912
4518	0	35376	36529	33944
4519	0	35368	36572	33925
4520	0	35356	36636	33904
4521	0	35344	36684	33900
4522	0	35364	36712	33912
4523	0	35384	36688	33896
4524	0	35376	36696	33884
4525	0	35392	36716	33885
4526	0	35416	36728	33868
4527	0	35404	36732	33828
4528	0	35428	36712	33788
4529	0	35432	36680	33758
4530	0	35440	36664	33764
4531	0	35464	36692	33744
4532	0	35480	36704	33728
4533	0	35520	36688	33700
4534	0	35544	36676	33676
4535	0	35560	36632	33644
4536	0	35568	36592	33584
4537	0	35568	36601	33580
4538	0	35560	36588	33544
4539	0	35604	36592	33588
4540	0	35628	36628	33602
4541	0	35608	36605	33556
4542	0	35624	36605	33556
4543	0	35645	36612	33564
4544	0	35628	36648	33568
4545	0	35640	36616	33568
4546	0	35664	36608	33569
4547	0	35688	36585	33576
4548	0	35704	36604	33576
4549	0	35672	36640	33580
4550	0	35648	36648	33584
4551	0	35636	36657	33568
4552	0	35612	36684	33616
4553	0	35600	36682	33668
4554	0	35600	36632	33672
4555	0	35568	36652	33673
4556	0	35592	36612	33696
4557	0	35640	36576	33736
4558	0	35640	36536	33732
4559	0	35648	36508	33704
4560	0	35620	36524	33656
4561	0	35588	36560	33660
4562	0	35596	36589	33660
4563	0	35600	36568	33632
4564	0	35552	36600	33608
4565	0	35572	36600	33621
4566	0	35592	36588	33628
4567	0	35592	36588	33645
4568	0	35560	36616	33636
4569	0	35532	36640	33608
4570	0	35544	36628	33624
4571	0	35560	36624	33616
4572	0	35552	36604	33588
4573	0	35564	36632	33584
4574	0	35552	36628	33560
4575	0	35560	36640	33568
4576	0	35592	36596	33584
4577	0	35568	36560	33572
4578	0	35512	36536	33540
4579	0	35472	36548	33508
4580	0	35472	36520	33509
4581	0	35472	36536	33512
4582	0	35464	36548	33532
4583	0	35476	36552	33524
4584	0	35428	36576	33504
4585	0	35480	36576	33500
4586	0	35444	36556	33476
4587	0	35416	36560	33456
4588	0	35456	36552	33440
4589	0	35464	36540	33408
4590	0	35460	36536	33360
4591	0	35452	36536	33320
4592	0	35448	36512	33328
4593	0	35504	36496	33332
4594	0	35504	36484	33332
4595	0	35512	36468	33322
4596	0	35524	36484	33320
4597	0	35504	36513	33336
4598	0	35524	36516	33364
4599	0	35536	36512	33373
4600	0	35520	36508	33376
4601	0	35520	36528	33384
4602	0	35540	36508	33376
4603	0	35536	36492	33372
4604	0	35536	36488	33369
4605	0	35560	36476	33374
4606	0	35576	36484	33376
4607	0	35592	36476	33380
4608	0	35608	36452	33388
4609	0	35600	36479	33392
4610	0	35596	36476	33420
4611	0	35592	36480	33436
4612	0	35600	36492	33436
4613	0	35608	36500	33436
4614	0	35600	36512	33428
4615	0	35608	36524	33428
4616	0	35628	36508	33440
4617	0	35632	36512	33428
4618	0	35612	36509	33388
4619	0	35644	36516	33376
4620	0	35653	36528	33364
4621	0	35664	36532	33356
4622	0	35692	36548	33340
4623	0	35720	36552	33324
4624	0	35720	36576	33310
4625	0	35712	36572	33296
4626	0	35740	36580	33304
4627	0	35768	36572	33288
4628	0	35776	36576	33285
4629	0	35784	36584	33280
4630	0	35776	36580	33276
4631	0	35788	36572	33268
4632	0	35816	36576	33268
4633	0	35816	36600	33240
4634	0	35812	36596	33228
4635	0	35820	36588	33228
4636	0	35808	36572	33224
4637	0	35820	36548	33236
4638	0	35820	36508	33228
4639	0	35808	36472	33236
4640	0	35776	36456	33244
4641	0	35776	36436	33256
4642	0	35776	36428	33274
4643	0	35740	36404	33284
4644	0	35728	36396	33292
4645	0	35716	36396	33312
4646	0	35732	36412	33336
4647	0	35744	36400	33352
4648	0	35744	36388	33380
4649	0	35740	36368	33396
4650	0	35748	36352	33404
4651	0	35740	36336	33408
4652	0	35724	36336	33396
4653	0	35728	36348	33404
4654	0	35724	36344	33388
4655	0	35720	36336	33392
4656	0	35696	36340	33400
4657	0	35712	36348	33392
4658	0	35720	36344	33392
4659	0	35696	36340	33407
4660	0	35672	36340	33396
4661	0	35680	36344	33384
4662	0	35680	36336	33368
4663	0	35648	36320	33364
4664	0	35632	36312	33372
4665	0	35616	36296	33376
4666	0	35620	36288	33376
4667	0	35576	36288	33356
4668	0	35577	36276	33356
4669	0	35580	36280	33352
4670	0	35564	36272	33360
4671	0	35568	36276	33364
4672	0	35568	36277	33364
4673	0	35576	36276	33348
4674	0	35576	36276	33356
4675	0	35576	36296	33352
4676	0	35600	36284	33356
4677	0	35608	36296	33356
4678	0	35600	36308	33344
4679	0	35600	36316	33360
4680	0	35596	36320	33364
4681	0	35600	36328	33368
4682	0	35600	36328	33360
4683	0	35624	36332	33352
4684	0	35632	36320	33368
4685	0	35632	36336	33384
4686	0	35632	36328	33400
4687	0	35648	36328	33408
4688	0	35656	36332	33424
4689	0	35656	36352	33424
4690	0	35656	36368	33424
4691	0	35664	36372	33416
4692	0	35680	36384	33406
4693	0	35684	36400	33400
4694	0	35700	36400	33384
4695	0	35720	36416	33376
4696	0	35724	36436	33368
4697	0	35736	36456	33360
4698	0	35764	36476	33364
4699	0	35792	36488	33348
4700	0	35832	36528	33324
4701	0	35868	36544	33313
4702	0	35880	36564	33297
4703	0	35912	36564	33292
4704	0	35928	36556	33292
4705	0	35928	36568	33288
4706	0	35936	36556	33280
4707	0	35912	36572	33284
4708	0	35916	36552	33294
4709	0	35920	36564	33284
4710	0	35920	36568	33276
4711	0	35936	36564	33272
4712	0	35940	36572	33252
4713	0	35956	36560	33264
4714	0	35945	36544	33244
4715	0	35968	36532	33244
4716	0	35944	36524	33264
4717	0	35936	36536	33260
4718	0	35936	36536	33276
4719	0	35952	36540	33272
4720	0	35956	36536	33300
4721	0	35940	36526	33308
4722	0	35944	36536	33324
4723	0	35932	36524	33338
4724	0	35932	36508	33348
4725	0	35940	36512	33320
4726	0	35928	36508	33312
4727	0	35924	36512	33297
4728	0	35932	36504	33285
4729	0	35936	36488	33276
4730	0	35944	36488	33268
4731	0	35956	36476	33264
4732	0	35976	36492	33249
4733	0	35996	36492	33260
4734	0	35988	36504	33248
4735	0	36000	36516	33236
4736	0	36000	36520	33212
4737	0	36016	36528	33212
4738	0	36028	36516	33228
4739	0	36032	36524	33220
4740	0	36040	36536	33208
4741	0	36044	36544	33192
4742	0	36040	36520	33196
4743	0	36016	36536	33180
4744	0	36032	36528	33168
4745	0	36040	36504	33164
4746	0	36020	36492	33160
4747	0	36016	36484	33136
4748	0	36024	36480	33136
4749	0	36004	36480	33128
4750	0	35996	36468	33124
4751	0	36020	36464	33120
4752	0	36008	36456	33128
4753	0	36016	36445	33144
4754	0	36033	36440	33156
4755	0	36016	36420	33176
4756	0	36008	36408	33205
4757	0	36012	36404	33224
4758	0	35984	36405	33229
4759	0	35992	36372	33252
4760	0	35976	36388	33256
4761	0	35944	36396	33264
4762	0	35948	36380	33296
4763	0	35952	36376	33289
4764	0	35964	36372	33272
4765	0	35952	36388	33240
4766	0	35968	36408	33228
4767	0	35964	36416	33240
4768	0	35960	36432	33220
4769	0	35976	36420	33196
4770	0	35976	36408	33176
4771	0	35988	36404	33160
4772	0	35976	36404	33148
4773	0	35976	36404	33120
4774	0	35992	36408	33100
4775	0	36008	36388	33104
4776	0	36024	36400	33104
4777	0	36024	36408	33084
4778	0	36032	36408	33068
4779	0	36040	36428	33080
4780	0	36040	36428	33096
4781	0	36020	36440	33108
4782	0	36040	36420	33124
4783	0	36000	36436	33116
4784	0	36016	36440	33136
4785	0	36032	36440	33160
4786	0	36048	36445	33196
4787	0	36016	36448	33200
4788	0	36032	36444	33224
4789	0	36060	36440	33245
4790	0	36048	36440	33268
4791	0	36048	36456	33292
4792	0	36052	36456	33308
4793	0	36060	36444	33324
4794	0	36032	36448	33320
4795	0	36024	36456	33336
4796	0	36028	36436	33352
4797	0	36008	36424	33392
4798	0	36032	36413	33400
4799	0	36028	36400	33408
4800	0	36040	36388	33412
4801	0	36040	36392	33432
4802	0	36020	36388	33444
4803	0	36032	36416	33465
4804	0	36056	36420	33480
4805	0	36072	36420	33508
4806	0	36068	36420	33532
4807	0	36088	36424	33540
4808	0	36088	36432	33544
4809	0	36104	36416	33568
4810	0	36072	36428	33564
4811	0	36072	36409	33576
4812	0	36064	36396	33569
4813	0	36096	36392	33568
4814	0	36088	36388	33544
4815	0	36084	36384	33532
4816	0	36108	36397	33512
4817	0	36112	36388	33512
4818	0	36128	36408	33500
4819	0	36176	36416	33468
4820	0	36160	36404	33444
