# OpenSignals Text File Format
# {"00:07:80:4D:2E:5B":{"sensor":["gACCx","gACCy","gACCz"],"device name":"00:07:80:4D:2E:5B","column":["nSeq","DI","gACCx","gACCy","gACCz"],"sync interval":2,"time":"05:27:14","comments":"","keywords":"","device connection":"BTH00:07:80:4D:2E:5B","channels":[1,2,3],"date":"2024-10-17","mode":0,"digital IO":[0,1],"firmware version":775,"device":"biosignalsplux","position":0,"sampling rate":1000,"label":["gACCx","gACCy","gACCz"],"resolution":[16,16,16],"special":[{},{},{}],"sleeve color":["UNKNOWN","UNKNOWN","UNKNOWN"]}}
# EndOfHeader
0	0	37688	32928	33912
1	0	37696	32936	33912
2	0	37700	32928	33908
3	0	37708	32936	33912
4	0	37740	32940	33901
5	0	37744	32936	33904
6	0	37768	32936	33905
7	0	37772	32936	33908
8	0	37792	32928	33932
9	0	37784	32940	33932
10	0	37760	32936	33944
11	0	37756	32940	33952
12	0	37760	32936	33952
13	0	37736	32944	33952
14	0	37728	32960	33976
15	0	37728	32956	33976
16	0	37728	32948	33984
17	0	37720	32948	33976
18	0	37720	32936	33992
19	0	37716	32964	33980
20	0	37720	32952	33984
21	0	37704	32952	33976
22	0	37736	32960	33960
23	0	37728	32972	33952
24	0	37752	32964	33948
25	0	37744	32952	33964
26	0	37752	32944	33949
27	0	37744	32944	33956
28	0	37768	32957	33948
29	0	37768	32948	33952
30	0	37788	32952	33948
31	0	37800	32948	33932
32	0	37780	32936	33936
33	0	37788	32940	33944
34	0	37780	32936	33937
35	0	37792	32925	33945
36	0	37780	32928	33949
37	0	37757	32924	33960
38	0	37768	32940	33964
39	0	37772	32936	33964
40	0	37752	32924	33960
41	0	37740	32932	33964
42	0	37720	32921	33964
43	0	37716	32928	33968
44	0	37696	32920	33960
45	0	37696	32936	33972
46	0	37696	32932	33992
47	0	37705	32940	33984
48	0	37692	32948	33984
49	0	37672	32948	33964
50	0	37688	32937	33984
51	0	37672	32944	33984
52	0	37660	32952	33992
53	0	37636	32960	33988
54	0	37628	32968	33996
55	0	37668	32960	34012
56	0	37664	32960	34008
57	0	37684	32960	34000
58	0	37672	32978	33996
59	0	37684	32960	34008
60	0	37684	32972	34016
61	0	37688	32964	34024
62	0	37680	32974	34024
63	0	37672	32968	34028
64	0	37696	32984	34024
65	0	37704	32988	34020
66	0	37720	32992	34021
67	0	37720	32990	34031
68	0	37728	32988	34017
69	0	37752	32992	34012
70	0	37768	32988	34022
71	0	37776	32986	34012
72	0	37776	32981	34000
73	0	37792	32996	33976
74	0	37788	32990	33980
75	0	37804	32976	33992
76	0	37832	32980	33988
77	0	37824	32976	33984
78	0	37816	32990	33968
79	0	37816	32992	33982
80	0	37816	32992	33980
81	0	37816	32993	33980
82	0	37816	32984	33988
83	0	37808	32972	33996
84	0	37816	32960	33984
85	0	37832	32962	33984
86	0	37856	32952	33992
87	0	37848	32940	33984
88	0	37816	32957	33984
89	0	37800	32948	33984
90	0	37792	32952	33968
91	0	37804	32964	33960
92	0	37820	32960	33960
93	0	37788	32952	33952
94	0	37776	32964	33940
95	0	37768	32944	33936
96	0	37752	32928	33941
97	0	37740	32932	33936
98	0	37744	32948	33916
99	0	37760	32944	33908
100	0	37760	32932	33908
101	0	37756	32936	33908
102	0	37752	32936	33904
103	0	37788	32926	33892
104	0	37796	32928	33884
105	0	37832	32932	33880
106	0	37828	32926	33864
107	0	37864	32924	33860
108	0	37889	32900	33860
109	0	37872	32909	33840
110	0	37896	32916	33832
111	0	37896	32908	33828
112	0	37888	32912	33820
113	0	37913	32912	33800
114	0	37924	32904	33800
115	0	37920	32892	33800
116	0	37920	32900	33784
117	0	37896	32896	33784
118	0	37872	32904	33784
119	0	37832	32912	33788
120	0	37812	32900	33788
121	0	37800	32902	33776
122	0	37800	32876	33790
123	0	37792	32888	33776
124	0	37760	32876	33780
125	0	37752	32868	33765
126	0	37748	32868	33768
127	0	37736	32856	33760
128	0	37772	32856	33768
129	0	37788	32864	33780
130	0	37792	32868	33780
131	0	37772	32864	33786
132	0	37776	32865	33804
133	0	37792	32884	33792
134	0	37800	32880	33816
135	0	37776	32880	33824
136	0	37788	32868	33844
137	0	37780	32873	33856
138	0	37768	32872	33864
139	0	37744	32888	33864
140	0	37736	32884	33892
141	0	37700	32888	33912
142	0	37688	32892	33916
143	0	37688	32900	33936
144	0	37656	32904	33936
145	0	37656	32904	33940
146	0	37636	32908	33952
147	0	37608	32900	33956
148	0	37592	32916	33960
149	0	37576	32908	33952
150	0	37592	32900	33956
151	0	37620	32896	33956
152	0	37620	32916	33944
153	0	37640	32916	33948
154	0	37648	32932	33952
155	0	37688	32932	33940
156	0	37696	32924	33945
157	0	37712	32927	33948
158	0	37720	32926	33952
159	0	37748	32932	33964
160	0	37728	32920	34000
161	0	37728	32936	33980
162	0	37752	32936	33984
163	0	37744	32936	34004
164	0	37728	32941	34008
165	0	37708	32944	34020
166	0	37692	32956	34020
167	0	37696	32960	34024
168	0	37696	32936	34032
169	0	37704	32952	34040
170	0	37684	32960	34048
171	0	37680	32968	34036
172	0	37676	32960	34036
173	0	37696	32966	34036
174	0	37688	32964	34036
175	0	37700	32956	34024
176	0	37696	32952	34004
177	0	37712	32957	33992
178	0	37724	32964	33984
179	0	37764	32956	33976
180	0	37792	32948	33968
181	0	37788	32940	33960
182	0	37808	32940	33969
183	0	37816	32925	33953
184	0	37824	32920	33940
185	0	37836	32928	33929
186	0	37848	32932	33916
187	0	37856	32929	33912
188	0	37864	32920	33900
189	0	37840	32912	33904
190	0	37824	32917	33900
191	0	37832	32908	33908
192	0	37824	32908	33908
193	0	37808	32912	33912
194	0	37792	32904	33916
195	0	37776	32904	33900
196	0	37760	32910	33892
197	0	37752	32904	33896
198	0	37740	32917	33904
199	0	37744	32916	33897
200	0	37752	32916	33904
201	0	37740	32924	33892
202	0	37760	32912	33892
203	0	37764	32916	33900
204	0	37769	32920	33900
205	0	37752	32928	33920
206	0	37776	32940	33916
207	0	37776	32928	33928
208	0	37772	32932	33933
209	0	37784	32924	33936
210	0	37784	32936	33924
211	0	37784	32928	33936
212	0	37800	32944	33940
213	0	37824	32944	33936
214	0	37808	32945	33948
215	0	37800	32948	33952
216	0	37804	32956	33956
217	0	37804	32960	33965
218	0	37804	32950	33980
219	0	37792	32953	33980
220	0	37796	32964	33972
221	0	37800	32964	33976
222	0	37816	32964	33972
223	0	37824	32968	33960
224	0	37824	32976	33964
225	0	37840	32976	33960
226	0	37844	32964	33956
227	0	37832	32976	33952
228	0	37816	32972	33945
229	0	37816	32968	33952
230	0	37824	32968	33952
231	0	37828	32956	33952
232	0	37824	32976	33936
233	0	37816	32964	33944
234	0	37808	32968	33948
235	0	37816	32960	33956
236	0	37816	32964	33964
237	0	37816	32960	33960
238	0	37788	32977	33956
239	0	37800	32964	33960
240	0	37808	32952	33977
241	0	37828	32956	33984
242	0	37836	32964	33984
243	0	37844	32940	34000
244	0	37852	32940	33996
245	0	37860	32944	33994
246	0	37848	32960	34000
247	0	37852	32960	34000
248	0	37844	32960	33996
249	0	37840	32968	33996
250	0	37844	32964	34012
251	0	37836	32964	33992
252	0	37832	32956	33992
253	0	37804	32960	33996
254	0	37780	32968	33992
255	0	37796	32956	34000
256	0	37784	32952	33988
257	0	37792	32948	33988
258	0	37800	32936	33980
259	0	37784	32940	33952
260	0	37768	32932	33956
261	0	37776	32933	33948
262	0	37768	32932	33956
263	0	37796	32924	33956
264	0	37792	32916	33948
265	0	37800	32924	33944
266	0	37804	32908	33944
267	0	37812	32928	33920
268	0	37804	32932	33913
269	0	37832	32924	33916
270	0	37816	32925	33920
271	0	37808	32908	33927
272	0	37808	32904	33928
273	0	37808	32904	33944
274	0	37828	32904	33940
275	0	37840	32904	33948
276	0	37800	32904	33944
277	0	37792	32912	33944
278	0	37808	32912	33945
279	0	37792	32916	33944
280	0	37796	32904	33936
281	0	37780	32892	33936
282	0	37772	32888	33928
283	0	37760	32900	33924
284	0	37764	32904	33920
285	0	37756	32892	33920
286	0	37756	32901	33900
287	0	37756	32909	33888
288	0	37760	32916	33884
289	0	37764	32908	33884
290	0	37728	32928	33884
291	0	37736	32920	33868
292	0	37696	32928	33868
293	0	37680	32912	33868
294	0	37664	32908	33861
295	0	37656	32896	33856
296	0	37640	32916	33832
297	0	37624	32896	33837
298	0	37608	32902	33840
299	0	37600	32896	33832
300	0	37612	32884	33832
301	0	37624	32877	33824
302	0	37648	32872	33824
303	0	37664	32864	33816
304	0	37688	32876	33804
305	0	37688	32885	33800
306	0	37708	32888	33808
307	0	37716	32880	33812
308	0	37724	32864	33816
309	0	37736	32860	33812
310	0	37760	32880	33808
311	0	37784	32888	33812
312	0	37780	32896	33808
313	0	37768	32880	33812
314	0	37760	32900	33816
315	0	37736	32893	33840
316	0	37748	32904	33836
317	0	37732	32892	33853
318	0	37724	32906	33848
319	0	37712	32900	33856
320	0	37688	32908	33872
321	0	37720	32893	33887
322	0	37712	32908	33889
323	0	37728	32912	33880
324	0	37728	32920	33880
325	0	37728	32928	33880
326	0	37736	32932	33884
327	0	37744	32925	33892
328	0	37752	32924	33897
329	0	37768	32924	33912
330	0	37772	32928	33924
331	0	37768	32944	33928
332	0	37772	32960	33928
333	0	37792	32952	33936
334	0	37789	32948	33944
335	0	37800	32956	33936
336	0	37792	32952	33949
337	0	37800	32960	33956
338	0	37816	32958	33961
339	0	37808	32961	33972
340	0	37808	32956	33973
341	0	37812	32956	33976
342	0	37820	32964	33980
343	0	37816	32972	33980
344	0	37832	32984	33988
345	0	37836	32992	33980
346	0	37852	33000	33964
347	0	37832	32992	33976
348	0	37836	32988	33972
349	0	37848	32984	33976
350	0	37848	32984	33968
351	0	37840	32992	33972
352	0	37852	32988	33976
353	0	37860	32975	33980
354	0	37840	32964	33973
355	0	37860	32972	33976
356	0	37860	32972	33976
357	0	37864	32976	33968
358	0	37888	32984	33966
359	0	37892	32973	33964
360	0	37876	32984	33952
361	0	37888	32976	33944
362	0	37880	32984	33940
363	0	37892	32970	33940
364	0	37880	32980	33960
365	0	37896	32968	33964
366	0	37888	32964	33970
367	0	37856	32976	33964
368	0	37848	32977	33964
369	0	37852	32976	33972
370	0	37832	32960	33980
371	0	37820	32960	33968
372	0	37792	32964	33980
373	0	37768	32955	33968
374	0	37772	32948	33956
375	0	37744	32940	33940
376	0	37748	32940	33940
377	0	37716	32940	33944
378	0	37720	32928	33920
379	0	37712	32912	33904
380	0	37704	32908	33880
381	0	37704	32904	33888
382	0	37728	32904	33888
383	0	37736	32908	33876
384	0	37736	32897	33864
385	0	37748	32892	33856
386	0	37760	32904	33828
387	0	37784	32893	33832
388	0	37796	32884	33832
389	0	37792	32888	33816
390	0	37788	32889	33824
391	0	37792	32900	33828
392	0	37776	32892	33824
393	0	37784	32900	33832
394	0	37788	32908	33832
395	0	37768	32896	33832
396	0	37748	32896	33820
397	0	37724	32896	33832
398	0	37696	32896	33832
399	0	37712	32896	33848
400	0	37684	32900	33848
401	0	37672	32900	33860
402	0	37664	32888	33864
403	0	37652	32894	33868
404	0	37640	32880	33876
405	0	37632	32884	33880
406	0	37628	32900	33872
407	0	37616	32888	33872
408	0	37608	32904	33872
409	0	37612	32888	33884
410	0	37628	32900	33876
411	0	37616	32896	33888
412	0	37660	32893	33892
413	0	37688	32897	33904
414	0	37668	32892	33913
415	0	37688	32892	33916
416	0	37720	32901	33925
417	0	37720	32924	33924
418	0	37736	32917	33932
419	0	37728	32904	33932
420	0	37720	32904	33948
421	0	37724	32912	33952
422	0	37740	32904	33956
423	0	37724	32912	33964
424	0	37736	32912	33976
425	0	37716	32928	33980
426	0	37744	32908	34000
427	0	37740	32924	33992
428	0	37768	32920	33988
429	0	37768	32920	33984
430	0	37784	32896	33996
431	0	37760	32921	33976
432	0	37760	32936	33972
433	0	37784	32936	33968
434	0	37768	32932	33973
435	0	37784	32936	33968
436	0	37792	32944	33980
437	0	37792	32928	33992
438	0	37788	32936	33988
439	0	37800	32936	33980
440	0	37776	32936	33993
441	0	37764	32944	34000
442	0	37768	32940	34012
443	0	37752	32944	34028
444	0	37768	32952	34024
445	0	37768	32952	34020
446	0	37760	32952	34012
447	0	37768	32964	34020
448	0	37780	32960	34032
449	0	37788	32960	34028
450	0	37816	32961	34016
451	0	37828	32968	34008
452	0	37848	32964	34012
453	0	37844	32960	34008
454	0	37848	32956	34004
455	0	37834	32960	33988
456	0	37848	32936	33988
457	0	37856	32940	33980
458	0	37880	32936	33980
459	0	37880	32936	33960
460	0	37881	32928	33956
461	0	37880	32936	33944
462	0	37856	32944	33936
463	0	37856	32932	33940
464	0	37844	32936	33944
465	0	37864	32936	33937
466	0	37844	32924	33936
467	0	37812	32932	33920
468	0	37816	32928	33916
469	0	37832	32920	33916
470	0	37816	32924	33904
471	0	37816	32912	33896
472	0	37808	32908	33892
473	0	37796	32900	33892
474	0	37800	32904	33888
475	0	37804	32904	33873
476	0	37800	32912	33860
477	0	37804	32908	33860
478	0	37800	32892	33872
479	0	37800	32900	33848
480	0	37808	32893	33852
481	0	37816	32896	33844
482	0	37816	32892	33852
483	0	37808	32896	33848
484	0	37800	32904	33836
485	0	37808	32900	33840
486	0	37816	32876	33840
487	0	37816	32896	33836
488	0	37816	32892	33836
489	0	37820	32868	33844
490	0	37804	32872	33812
491	0	37796	32872	33816
492	0	37804	32876	33800
493	0	37800	32884	33800
494	0	37800	32876	33800
495	0	37800	32884	33788
496	0	37792	32888	33805
497	0	37780	32884	33796
498	0	37768	32892	33800
499	0	37752	32885	33800
500	0	37740	32888	33792
501	0	37728	32888	33800
502	0	37724	32880	33816
503	0	37752	32880	33812
504	0	37756	32888	33816
505	0	37748	32892	33820
506	0	37740	32902	33832
507	0	37740	32896	33821
508	0	37752	32908	33828
509	0	37760	32903	33840
510	0	37760	32892	33844
511	0	37745	32880	33848
512	0	37732	32880	33856
513	0	37744	32888	33860
514	0	37756	32892	33841
515	0	37756	32896	33857
516	0	37736	32909	33860
517	0	37744	32908	33856
518	0	37752	32913	33868
519	0	37756	32905	33885
520	0	37758	32920	33884
521	0	37756	32924	33868
522	0	37776	32920	33885
523	0	37776	32920	33880
524	0	37780	32916	33884
525	0	37784	32904	33882
526	0	37780	32904	33884
527	0	37788	32912	33880
528	0	37792	32916	33872
529	0	37816	32912	33877
530	0	37824	32896	33880
531	0	37828	32900	33872
532	0	37824	32900	33856
533	0	37848	32924	33857
534	0	37848	32916	33860
535	0	37836	32904	33856
536	0	37844	32912	33860
537	0	37824	32908	33868
538	0	37828	32896	33864
539	0	37825	32904	33880
540	0	37844	32912	33876
541	0	37840	32900	33880
542	0	37824	32904	33880
543	0	37816	32916	33864
544	0	37816	32912	33864
545	0	37800	32924	33856
546	0	37792	32920	33872
547	0	37784	32916	33872
548	0	37784	32908	33868
549	0	37784	32912	33866
550	0	37784	32908	33868
551	0	37768	32916	33864
552	0	37748	32920	33848
553	0	37752	32912	33852
554	0	37768	32920	33852
555	0	37756	32920	33848
556	0	37732	32908	33844
557	0	37716	32908	33852
558	0	37716	32896	33856
559	0	37704	32912	33856
560	0	37704	32912	33854
561	0	37688	32920	33856
562	0	37692	32908	33854
563	0	37696	32904	33856
564	0	37688	32916	33836
565	0	37696	32908	33832
566	0	37708	32912	33836
567	0	37688	32916	33840
568	0	37680	32908	33836
569	0	37672	32913	33828
570	0	37668	32920	33822
571	0	37688	32928	33824
572	0	37656	32924	33820
573	0	37672	32912	33808
574	0	37684	32900	33820
575	0	37688	32896	33820
576	0	37720	32896	33804
577	0	37716	32896	33800
578	0	37736	32884	33792
579	0	37760	32888	33788
580	0	37756	32892	33784
581	0	37772	32888	33796
582	0	37800	32909	33780
583	0	37800	32896	33784
584	0	37824	32901	33788
585	0	37840	32900	33776
586	0	37832	32912	33776
587	0	37856	32920	33780
588	0	37872	32924	33806
589	0	37856	32924	33820
590	0	37824	32917	33824
591	0	37816	32912	33837
592	0	37784	32916	33848
593	0	37784	32912	33848
594	0	37768	32924	33844
595	0	37752	32920	33864
596	0	37748	32924	33860
597	0	37728	32928	33861
598	0	37712	32940	33868
599	0	37700	32928	33872
600	0	37704	32924	33869
601	0	37700	32920	33884
602	0	37708	32928	33885
603	0	37724	32916	33888
604	0	37736	32928	33880
605	0	37776	32920	33864
606	0	37776	32932	33864
607	0	37788	32928	33860
608	0	37788	32932	33860
609	0	37824	32936	33853
610	0	37820	32936	33848
611	0	37840	32928	33844
612	0	37832	32928	33848
613	0	37824	32936	33840
614	0	37832	32932	33848
615	0	37840	32928	33844
616	0	37840	32928	33836
617	0	37860	32920	33836
618	0	37872	32920	33832
619	0	37856	32924	33824
620	0	37860	32908	33840
621	0	37856	32912	33836
622	0	37876	32916	33844
623	0	37876	32916	33844
624	0	37856	32920	33828
625	0	37876	32908	33836
626	0	37880	32912	33832
627	0	37880	32924	33836
628	0	37904	32924	33840
629	0	37900	32920	33836
630	0	37888	32920	33832
631	0	37896	32916	33832
632	0	37904	32924	33832
633	0	37896	32924	33832
634	0	37881	32916	33832
635	0	37868	32932	33828
636	0	37852	32916	33836
637	0	37824	32920	33844
638	0	37808	32916	33853
639	0	37808	32920	33856
640	0	37800	32904	33856
641	0	37792	32892	33856
642	0	37788	32897	33848
643	0	37780	32904	33832
644	0	37780	32888	33832
645	0	37760	32896	33836
646	0	37768	32900	33832
647	0	37784	32912	33816
648	0	37776	32920	33822
649	0	37784	32925	33816
650	0	37788	32920	33812
651	0	37792	32924	33800
652	0	37800	32916	33816
653	0	37808	32920	33804
654	0	37828	32928	33812
655	0	37836	32928	33812
656	0	37840	32908	33824
657	0	37824	32912	33820
658	0	37828	32912	33808
659	0	37856	32896	33796
660	0	37872	32894	33800
661	0	37908	32892	33792
662	0	37928	32880	33780
663	0	37952	32880	33776
664	0	37976	32884	33760
665	0	37984	32900	33749
666	0	37992	32904	33741
667	0	38008	32904	33736
668	0	38020	32900	33728
669	0	38040	32893	33740
670	0	38048	32916	33728
671	0	38048	32920	33712
672	0	38040	32920	33708
673	0	38020	32916	33714
674	0	38024	32920	33712
675	0	38024	32928	33712
676	0	38012	32928	33716
677	0	37996	32936	33725
678	0	37968	32938	33732
679	0	37940	32936	33736
680	0	37956	32945	33740
681	0	37944	32968	33740
682	0	37944	32972	33740
683	0	37940	32984	33724
684	0	37916	32996	33704
685	0	37888	32996	33708
686	0	37824	33024	33684
687	0	37784	33040	33676
688	0	37744	32998	33692
689	0	37696	32940	33693
690	0	37688	32901	33708
691	0	37692	32852	33729
692	0	37724	32836	33720
693	0	37800	32832	33716
694	0	37896	32840	33716
695	0	37984	32852	33704
696	0	38076	32872	33684
697	0	38140	32892	33680
698	0	38208	32896	33672
699	0	38280	32904	33664
700	0	38288	32912	33664
701	0	38281	32920	33658
702	0	38236	32920	33645
703	0	38200	32925	33644
704	0	38140	32920	33640
705	0	38080	32916	33632
706	0	37981	32896	33636
707	0	37888	32892	33632
708	0	37808	32881	33628
709	0	37728	32888	33624
710	0	37652	32872	33616
711	0	37600	32860	33600
712	0	37596	32864	33584
713	0	37560	32856	33584
714	0	37564	32872	33560
715	0	37568	32884	33536
716	0	37588	32852	33528
717	0	37648	32845	33516
718	0	37704	32844	33512
719	0	37752	32844	33500
720	0	37792	32848	33496
721	0	37832	32840	33488
722	0	37864	32844	33484
723	0	37900	32856	33496
724	0	37920	32860	33496
725	0	37960	32864	33500
726	0	37944	32864	33504
727	0	37928	32864	33528
728	0	37900	32868	33524
729	0	37884	32864	33544
730	0	37856	32860	33540
731	0	37848	32856	33544
732	0	37840	32860	33536
733	0	37824	32852	33540
734	0	37804	32840	33532
735	0	37792	32828	33520
736	0	37792	32836	33500
737	0	37808	32784	33488
738	0	37844	32660	33460
739	0	37872	32776	33400
740	0	37900	32912	33337
741	0	37936	32928	33257
742	0	37936	32878	33208
743	0	37920	32856	33164
744	0	37912	32860	33148
745	0	37936	32860	33164
746	0	37952	32840	33220
747	0	38000	32832	33272
748	0	38012	32844	33342
749	0	38048	32860	33404
750	0	38068	32864	33444
751	0	38080	32868	33488
752	0	38084	32856	33532
753	0	38096	32856	33544
754	0	38080	32848	33560
755	0	38052	32840	33573
756	0	38028	32856	33560
757	0	38016	32836	33568
758	0	37984	32832	33556
759	0	37944	32852	33552
760	0	37912	32836	33529
761	0	37868	32844	33512
762	0	37836	32852	33488
763	0	37796	32861	33464
764	0	37776	32869	33448
765	0	37744	32864	33440
766	0	37728	32872	33440
767	0	37716	32868	33432
768	0	37696	32880	33436
769	0	37696	32888	33428
770	0	37660	32896	33416
771	0	37656	32896	33404
772	0	37668	32888	33400
773	0	37696	32889	33396
774	0	37720	32884	33400
775	0	37744	32868	33380
776	0	37764	32872	33384
777	0	37776	32872	33384
778	0	37816	32868	33377
779	0	37840	32868	33373
780	0	37864	32872	33384
781	0	37892	32876	33372
782	0	37928	32872	33388
783	0	37952	32876	33384
784	0	37952	32884	33384
785	0	37984	32904	33396
786	0	37996	32904	33392
787	0	37988	32912	33406
788	0	37996	32916	33404
789	0	37992	32916	33400
790	0	37988	32913	33388
791	0	37969	32909	33384
792	0	37984	32900	33384
793	0	37960	32912	33384
794	0	37936	32908	33376
795	0	37952	32916	33352
796	0	37940	32920	33344
797	0	37948	32928	33340
798	0	37960	32926	33340
799	0	37968	32948	33332
800	0	37980	32944	33324
801	0	37984	32952	33314
802	0	38008	32956	33312
803	0	38016	32958	33314
804	0	38020	32944	33316
805	0	38008	32944	33316
806	0	38008	32952	33316
807	0	38012	32940	33344
808	0	37996	32944	33344
809	0	38004	32941	33348
810	0	38000	32940	33364
811	0	38020	32932	33360
812	0	38004	32924	33365
813	0	37988	32928	33360
814	0	37968	32940	33364
815	0	37960	32948	33352
816	0	37944	32944	33360
817	0	37944	32944	33365
818	0	37944	32928	33368
819	0	37936	32937	33352
820	0	37924	32936	33333
821	0	37920	32929	33328
822	0	37920	32920	33304
823	0	37888	32928	33284
824	0	37908	32924	33278
825	0	37896	32921	33276
826	0	37856	32888	33264
827	0	37824	32888	33252
828	0	37812	32885	33232
829	0	37812	32872	33224
830	0	37804	32872	33216
831	0	37788	32872	33208
832	0	37776	32880	33212
833	0	37792	32860	33208
834	0	37784	32868	33218
835	0	37752	32848	33220
836	0	37756	32850	33213
837	0	37744	32848	33204
838	0	37728	32840	33216
839	0	37756	32860	33204
840	0	37760	32864	33180
841	0	37760	32852	33172
842	0	37752	32848	33156
843	0	37760	32848	33132
844	0	37758	32840	33136
845	0	37788	32849	33116
846	0	37788	32840	33105
847	0	37784	32832	33096
848	0	37776	32824	33056
849	0	37784	32828	33044
850	0	37780	32812	33040
851	0	37792	32792	33024
852	0	37808	32800	32993
853	0	37824	32788	32984
854	0	37821	32780	32960
855	0	37864	32783	32944
856	0	37864	32796	32928
857	0	37896	32793	32924
858	0	37920	32804	32903
859	0	37940	32804	32896
860	0	37944	32792	32884
861	0	37968	32788	32864
862	0	37964	32788	32860
863	0	38008	32792	32840
864	0	38008	32768	32832
865	0	38024	32776	32817
866	0	38056	32780	32812
867	0	38056	32796	32812
868	0	38084	32796	32816
869	0	38104	32797	32824
870	0	38112	32808	32812
871	0	38120	32813	32804
872	0	38152	32808	32820
873	0	38184	32804	32808
874	0	38192	32800	32812
875	0	38200	32816	32817
876	0	38224	32824	32828
877	0	38248	32844	32832
878	0	38272	32860	32848
879	0	38316	32860	32852
880	0	38324	32876	32852
881	0	38340	32892	32848
882	0	38336	32892	32860
883	0	38336	32888	32860
884	0	38344	32892	32860
885	0	38332	32892	32877
886	0	38320	32896	32876
887	0	38284	32921	32864
888	0	38264	32928	32868
889	0	38216	32906	32896
890	0	38200	32912	32912
891	0	38152	32920	32916
892	0	38112	32926	32924
893	0	38080	32920	32936
894	0	38048	32924	32928
895	0	38008	32932	32944
896	0	37976	32930	32948
897	0	37968	32928	32956
898	0	37948	32936	32954
899	0	37936	32942	32961
900	0	37924	32936	32964
901	0	37900	32940	32952
902	0	37880	32932	32956
903	0	37864	32944	32940
904	0	37848	32944	32948
905	0	37848	32932	32944
906	0	37844	32924	32956
907	0	37872	32925	32944
908	0	37880	32936	32925
909	0	37860	32920	32940
910	0	37896	32912	32912
911	0	37912	32920	32900
912	0	37924	32932	32876
913	0	37936	32925	32857
914	0	37960	32910	32836
915	0	37960	32900	32800
916	0	37956	32888	32780
917	0	37953	32884	32756
918	0	37960	32872	32728
919	0	37972	32880	32708
920	0	37984	32880	32670
921	0	38008	32892	32657
922	0	38008	32892	32621
923	0	38032	32893	32582
924	0	38064	32864	32540
925	0	38108	32864	32460
926	0	38096	32864	32408
927	0	38080	32864	32352
928	0	38108	32864	32320
929	0	38136	32864	32308
930	0	38124	32868	32320
931	0	38120	32848	32328
932	0	38076	32852	32344
933	0	38048	32828	32364
934	0	38000	32804	32385
935	0	37944	32772	32392
936	0	37904	32751	32412
937	0	37868	32729	32413
938	0	37828	32720	32400
939	0	37800	32704	32384
940	0	37784	32696	32364
941	0	37800	32696	32312
942	0	37808	32688	32244
943	0	37788	32684	32212
944	0	37808	32689	32172
945	0	37840	32689	32132
946	0	37844	32680	32096
947	0	37864	32700	32049
948	0	37872	32708	32020
949	0	37908	32712	31992
950	0	37900	32708	31968
951	0	37908	32704	31968
952	0	37912	32716	31960
953	0	37912	32708	31960
954	0	37896	32702	31956
955	0	37888	32688	31960
956	0	37876	32680	31968
957	0	37872	32684	31960
958	0	37880	32672	31965
959	0	37856	32668	31964
960	0	37840	32660	31952
961	0	37828	32636	31956
962	0	37836	32632	31948
963	0	37864	32629	31924
964	0	37888	32616	31909
965	0	37908	32612	31876
966	0	37936	32621	31856
967	0	37972	32620	31848
968	0	38016	32624	31837
969	0	38072	32644	31821
970	0	38088	32660	31800
971	0	38112	32670	31772
972	0	38160	32684	31768
973	0	38196	32692	31752
974	0	38208	32700	31752
975	0	38200	32720	31740
976	0	38192	32733	31753
977	0	38184	32752	31764
978	0	38152	32768	31776
979	0	38120	32764	31780
980	0	38096	32776	31804
981	0	38064	32792	31810
982	0	38024	32800	31824
983	0	37952	32804	31836
984	0	37896	32800	31848
985	0	37872	32816	31844
986	0	37824	32812	31852
987	0	37785	32820	31840
988	0	37752	32825	31828
989	0	37724	32840	31808
990	0	37712	32832	31784
991	0	37728	32856	31775
992	0	37740	32860	31749
993	0	37744	32860	31732
994	0	37744	32860	31713
995	0	37768	32860	31712
996	0	37804	32848	31704
997	0	37832	32848	31672
998	0	37848	32856	31652
999	0	37880	32852	31624
1000	0	37908	32846	31596
1001	0	37908	32829	31568
1002	0	37960	32816	31556
1003	0	38000	32812	31516
1004	0	38016	32824	31492
1005	0	38040	32804	31452
1006	0	38036	32796	31420
1007	0	38016	32780	31388
1008	0	37985	32753	31332
1009	0	37992	32724	31297
1010	0	37972	32708	31280
1011	0	37920	32692	31229
1012	0	37912	32700	31177
1013	0	37912	32692	31133
1014	0	37880	32684	31105
1015	0	37872	32676	31060
1016	0	37812	32656	31020
1017	0	37776	32664	30984
1018	0	37756	32668	30952
1019	0	37720	32671	30944
1020	0	37704	32684	30928
1021	0	37688	32680	30916
1022	0	37680	32680	30904
1023	0	37668	32660	30900
1024	0	37644	32664	30880
1025	0	37648	32668	30872
1026	0	37608	32660	30865
1027	0	37632	32669	30864
1028	0	37640	32676	30853
1029	0	37632	32676	30856
1030	0	37632	32680	30848
1031	0	37584	32680	30860
1032	0	37552	32676	30860
1033	0	37544	32681	30856
1034	0	37528	32673	30854
1035	0	37508	32676	30844
1036	0	37476	32668	30844
1037	0	37465	32668	30828
1038	0	37472	32652	30828
1039	0	37440	32640	30813
1040	0	37424	32648	30784
1041	0	37404	32638	30784
1042	0	37400	32648	30760
1043	0	37408	32645	30744
1044	0	37392	32616	30729
1045	0	37392	32604	30736
1046	0	37396	32604	30705
1047	0	37404	32608	30684
1048	0	37408	32608	30672
1049	0	37408	32620	30672
1050	0	37400	32612	30669
1051	0	37384	32608	30680
1052	0	37372	32604	30684
1053	0	37356	32620	30692
1054	0	37352	32621	30689
1055	0	37348	32616	30704
1056	0	37328	32616	30708
1057	0	37324	32620	30716
1058	0	37316	32636	30724
1059	0	37316	32644	30716
1060	0	37316	32632	30720
1061	0	37312	32624	30732
1062	0	37316	32624	30716
1063	0	37328	32647	30688
1064	0	37332	32628	30676
1065	0	37352	32649	30656
1066	0	37357	32636	30628
1067	0	37376	32648	30592
1068	0	37376	32640	30552
1069	0	37384	32644	30500
1070	0	37416	32646	30452
1071	0	37456	32632	30416
1072	0	37460	32612	30368
1073	0	37476	32608	30332
1074	0	37496	32620	30300
1075	0	37512	32620	30280
1076	0	37540	32620	30248
1077	0	37568	32624	30240
1078	0	37560	32628	30228
1079	0	37568	32633	30212
1080	0	37560	32632	30212
1081	0	37548	32640	30216
1082	0	37560	32640	30232
1083	0	37544	32648	30248
1084	0	37536	32652	30264
1085	0	37512	32653	30288
1086	0	37480	32668	30320
1087	0	37456	32672	30364
1088	0	37416	32668	30396
1089	0	37388	32672	30428
1090	0	37356	32668	30461
1091	0	37332	32680	30492
1092	0	37276	32696	30512
1093	0	37256	32680	30536
1094	0	37220	32688	30552
1095	0	37208	32677	30576
1096	0	37200	32672	30592
1097	0	37192	32669	30584
1098	0	37184	32668	30572
1099	0	37176	32656	30564
1100	0	37184	32648	30532
1101	0	37200	32644	30500
1102	0	37224	32624	30476
1103	0	37240	32624	30432
1104	0	37248	32637	30409
1105	0	37280	32628	30393
1106	0	37296	32616	30360
1107	0	37328	32612	30328
1108	0	37360	32600	30312
1109	0	37344	32604	30276
1110	0	37328	32592	30264
1111	0	37324	32600	30244
1112	0	37316	32584	30240
1113	0	37312	32588	30232
1114	0	37284	32572	30228
1115	0	37256	32576	30212
1116	0	37248	32572	30207
1117	0	37244	32552	30204
1118	0	37228	32552	30180
1119	0	37212	32552	30172
1120	0	37224	32556	30136
1121	0	37208	32568	30124
1122	0	37216	32568	30108
1123	0	37225	32557	30088
1124	0	37260	32560	30064
1125	0	37256	32572	30045
1126	0	37268	32576	30032
1127	0	37280	32582	30009
1128	0	37288	32592	29996
1129	0	37304	32588	29992
1130	0	37312	32592	29996
1131	0	37304	32596	29992
1132	0	37304	32600	30004
1133	0	37320	32596	30020
1134	0	37312	32604	30012
1135	0	37312	32600	30020
1136	0	37300	32584	30036
1137	0	37312	32602	30024
1138	0	37292	32596	30029
1139	0	37300	32592	30024
1140	0	37312	32604	30024
1141	0	37312	32609	30008
1142	0	37316	32608	29993
1143	0	37304	32608	29980
1144	0	37304	32616	29952
1145	0	37296	32612	29944
1146	0	37316	32616	29920
1147	0	37352	32608	29897
1148	0	37352	32608	29873
1149	0	37384	32606	29844
1150	0	37368	32604	29816
1151	0	37376	32604	29796
1152	0	37392	32620	29760
1153	0	37404	32624	29748
1154	0	37404	32632	29720
1155	0	37377	32624	29704
1156	0	37364	32636	29708
1157	0	37360	32640	29704
1158	0	37352	32636	29704
1159	0	37328	32628	29696
1160	0	37304	32640	29708
1161	0	37288	32624	29712
1162	0	37272	32640	29733
1163	0	37248	32648	29740
1164	0	37220	32633	29760
1165	0	37216	32640	29768
1166	0	37236	32644	29780
1167	0	37216	32644	29780
1168	0	37200	32637	29776
1169	0	37208	32624	29780
1170	0	37216	32628	29772
1171	0	37228	32624	29772
1172	0	37224	32628	29752
1173	0	37232	32633	29740
1174	0	37208	32632	29716
1175	0	37188	32612	29724
1176	0	37176	32612	29720
1177	0	37160	32596	29732
1178	0	37164	32612	29708
1179	0	37132	32608	29704
1180	0	37112	32617	29704
1181	0	37072	32620	29704
1182	0	37040	32592	29724
1183	0	37000	32592	29716
1184	0	36984	32592	29724
1185	0	36968	32588	29724
1186	0	36952	32600	29736
1187	0	36944	32584	29740
1188	0	36924	32580	29729
1189	0	36884	32596	29720
1190	0	36848	32580	29712
1191	0	36840	32584	29692
1192	0	36828	32580	29672
1193	0	36808	32560	29660
1194	0	36792	32564	29652
1195	0	36768	32576	29621
1196	0	36788	32548	29612
1197	0	36784	32544	29584
1198	0	36784	32544	29560
1199	0	36760	32528	29524
1200	0	36768	32524	29492
1201	0	36772	32513	29456
1202	0	36768	32525	29417
1203	0	36776	32528	29393
1204	0	36792	32508	29384
1205	0	36808	32504	29372
1206	0	36808	32496	29350
1207	0	36792	32496	29336
1208	0	36780	32510	29320
1209	0	36764	32508	29304
1210	0	36768	32504	29308
1211	0	36748	32512	29313
1212	0	36740	32528	29298
1213	0	36728	32536	29288
1214	0	36708	32544	29292
1215	0	36684	32540	29284
1216	0	36640	32536	29300
1217	0	36608	32540	29292
1218	0	36592	32544	29306
1219	0	36560	32548	29288
1220	0	36544	32560	29288
1221	0	36528	32556	29278
1222	0	36512	32564	29264
1223	0	36492	32572	29236
1224	0	36508	32568	29216
1225	0	36524	32568	29196
1226	0	36524	32576	29168
1227	0	36524	32572	29148
1228	0	36520	32578	29124
1229	0	36528	32572	29084
1230	0	36536	32568	29060
1231	0	36528	32572	29025
1232	0	36516	32556	29004
1233	0	36500	32570	28956
1234	0	36488	32564	28944
1235	0	36504	32556	28928
1236	0	36496	32564	28896
1237	0	36464	32552	28884
1238	0	36432	32564	28864
1239	0	36416	32564	28848
1240	0	36416	32552	28858
1241	0	36380	32552	28836
1242	0	36360	32545	28832
1243	0	36329	32552	28820
1244	0	36312	32544	28820
1245	0	36292	32556	28801
1246	0	36280	32560	28808
1247	0	36268	32557	28821
1248	0	36256	32548	28840
1249	0	36241	32544	28840
1250	0	36236	32548	28848
1251	0	36244	32552	28836
1252	0	36216	32544	28844
1253	0	36220	32536	28840
1254	0	36208	32540	28828
1255	0	36184	32528	28828
1256	0	36160	32520	28832
1257	0	36132	32508	28829
1258	0	36112	32516	28816
1259	0	36080	32504	28804
1260	0	36080	32485	28804
1261	0	36080	32496	28772
1262	0	36068	32492	28744
1263	0	36064	32496	28716
1264	0	36028	32480	28692
1265	0	36028	32481	28653
1266	0	36024	32472	28624
1267	0	36000	32452	28584
1268	0	35968	32445	28540
1269	0	35968	32429	28500
1270	0	35977	32420	28464
1271	0	35968	32404	28432
1272	0	35976	32380	28404
1273	0	35952	32376	28372
1274	0	35944	32380	28352
1275	0	35928	32396	28336
1276	0	35904	32384	28320
1277	0	35904	32380	28320
1278	0	35872	32381	28321
1279	0	35848	32392	28336
1280	0	35840	32388	28360
1281	0	35800	32392	28376
1282	0	35788	32392	28396
1283	0	35776	32412	28425
1284	0	35788	32412	28460
1285	0	35760	32404	28485
1286	0	35740	32417	28512
1287	0	35740	32440	28536
1288	0	35700	32444	28552
1289	0	35696	32432	28568
1290	0	35684	32428	28564
1291	0	35672	32444	28560
1292	0	35684	32440	28564
1293	0	35688	32444	28564
1294	0	35680	32456	28556
1295	0	35676	32444	28542
1296	0	35672	32440	28524
1297	0	35648	32432	28512
1298	0	35656	32444	28504
1299	0	35612	32432	28496
1300	0	35584	32440	28484
1301	0	35536	32432	28484
1302	0	35496	32440	28480
1303	0	35484	32420	28472
1304	0	35484	32416	28464
1305	0	35464	32416	28460
1306	0	35416	32440	28456
1307	0	35408	32436	28449
1308	0	35368	32416	28456
1309	0	35348	32416	28444
1310	0	35328	32415	28425
1311	0	35316	32409	28412
1312	0	35312	32412	28385
1313	0	35300	32420	28360
1314	0	35288	32428	28336
1315	0	35272	32428	28321
1316	0	35280	32420	28302
1317	0	35264	32412	28288
1318	0	35264	32412	28268
1319	0	35244	32408	28252
1320	0	35204	32413	28248
1321	0	35200	32420	28248
1322	0	35192	32424	28233
1323	0	35188	32424	28236
1324	0	35152	32436	28224
1325	0	35156	32436	28220
1326	0	35140	32436	28204
1327	0	35128	32432	28208
1328	0	35096	32436	28200
1329	0	35080	32420	28197
1330	0	35032	32432	28180
1331	0	35000	32421	28173
1332	0	34980	32401	28168
1333	0	34968	32400	28156
1334	0	34953	32400	28140
1335	0	34936	32389	28128
1336	0	34908	32396	28096
1337	0	34876	32396	28089
1338	0	34840	32384	28072
1339	0	34804	32388	28052
1340	0	34808	32380	28021
1341	0	34792	32380	27993
1342	0	34784	32364	27968
1343	0	34784	32358	27957
1344	0	34752	32348	27944
1345	0	34728	32336	27924
1346	0	34696	32336	27884
1347	0	34684	32316	27872
1348	0	34665	32300	27856
1349	0	34632	32288	27828
1350	0	34612	32284	27796
1351	0	34612	32280	27768
1352	0	34580	32296	27736
1353	0	34552	32296	27708
1354	0	34560	32296	27680
1355	0	34552	32296	27648
1356	0	34541	32300	27628
1357	0	34512	32296	27616
1358	0	34504	32308	27600
1359	0	34476	32308	27592
1360	0	34448	32296	27600
1361	0	34440	32312	27598
1362	0	34392	32312	27620
1363	0	34376	32316	27632
1364	0	34360	32316	27660
1365	0	34344	32316	27688
1366	0	34332	32316	27716
1367	0	34340	32308	27745
1368	0	34308	32304	27776
1369	0	34288	32312	27796
1370	0	34280	32297	27828
1371	0	34272	32303	27852
1372	0	34268	32300	27864
1373	0	34264	32297	27874
1374	0	34260	32312	27892
1375	0	34256	32288	27900
1376	0	34240	32276	27908
1377	0	34232	32276	27904
1378	0	34228	32256	27904
1379	0	34216	32252	27896
1380	0	34192	32260	27896
1381	0	34168	32257	27880
1382	0	34152	32252	27880
1383	0	34128	32255	27872
1384	0	34120	32256	27864
1385	0	34104	32252	27848
1386	0	34120	32260	27836
1387	0	34096	32260	27836
1388	0	34076	32273	27818
1389	0	34041	32276	27828
1390	0	34032	32276	27828
1391	0	34032	32272	27836
1392	0	33988	32284	27828
1393	0	33960	32288	27820
1394	0	33932	32288	27828
1395	0	33916	32276	27844
1396	0	33888	32297	27837
1397	0	33868	32293	27832
1398	0	33856	32284	27834
1399	0	33816	32288	27828
1400	0	33820	32297	27816
1401	0	33808	32300	27796
1402	0	33824	32293	27796
1403	0	33792	32288	27784
1404	0	33776	32288	27792
1405	0	33768	32300	27784
1406	0	33760	32312	27773
1407	0	33752	32297	27769
1408	0	33720	32300	27757
1409	0	33696	32296	27768
1410	0	33672	32296	27764
1411	0	33664	32298	27760
1412	0	33644	32312	27744
1413	0	33628	32320	27748
1414	0	33626	32316	27740
1415	0	33588	32316	27712
1416	0	33568	32309	27704
1417	0	33536	32296	27700
1418	0	33496	32296	27696
1419	0	33464	32300	27684
1420	0	33454	32296	27673
1421	0	33428	32292	27668
1422	0	33384	32292	27664
1423	0	33352	32284	27680
1424	0	33309	32281	27684
1425	0	33288	32264	27688
1426	0	33280	32268	27688
1427	0	33248	32264	27676
1428	0	33228	32280	27672
1429	0	33221	32264	27676
1430	0	33196	32248	27678
1431	0	33192	32232	27684
1432	0	33156	32233	27677
1433	0	33136	32220	27672
1434	0	33104	32236	27661
1435	0	33104	32224	27664
1436	0	33092	32244	27666
1437	0	33076	32252	27664
1438	0	33060	32248	27664
1439	0	33024	32252	27672
1440	0	32996	32240	27696
1441	0	32972	32236	27704
1442	0	32952	32224	27720
1443	0	32928	32204	27738
1444	0	32912	32220	27732
1445	0	32872	32224	27745
1446	0	32832	32220	27760
1447	0	32812	32208	27760
1448	0	32776	32212	27764
1449	0	32742	32200	27768
1450	0	32728	32192	27768
1451	0	32696	32180	27760
1452	0	32668	32172	27741
1453	0	32648	32160	27728
1454	0	32640	32148	27708
1455	0	32608	32128	27685
1456	0	32576	32116	27669
1457	0	32552	32108	27645
1458	0	32552	32104	27620
1459	0	32544	32088	27604
1460	0	32528	32072	27592
1461	0	32504	32080	27584
1462	0	32508	32068	27600
1463	0	32504	32077	27612
1464	0	32468	32078	27640
1465	0	32448	32072	27656
1466	0	32440	32076	27686
1467	0	32432	32076	27704
1468	0	32428	32088	27724
1469	0	32416	32080	27753
1470	0	32424	32080	27772
1471	0	32440	32068	27792
1472	0	32429	32072	27805
1473	0	32425	32104	27800
1474	0	32416	32088	27824
1475	0	32416	32077	27838
1476	0	32420	32072	27844
1477	0	32408	32056	27848
1478	0	32412	32064	27844
1479	0	32392	32056	27840
1480	0	32388	32060	27852
1481	0	32368	32060	27828
1482	0	32356	32064	27820
1483	0	32352	32072	27816
1484	0	32336	32092	27804
1485	0	32336	32088	27804
1486	0	32328	32084	27808
1487	0	32324	32072	27797
1488	0	32328	32076	27796
1489	0	32332	32077	27797
1490	0	32308	32072	27777
1491	0	32304	32076	27760
1492	0	32308	32080	27748
1493	0	32280	32084	27748
1494	0	32284	32077	27744
1495	0	32272	32088	27736
1496	0	32264	32092	27744
1497	0	32260	32093	27756
1498	0	32252	32088	27760
1499	0	32232	32084	27768
1500	0	32208	32080	27784
1501	0	32192	32068	27796
1502	0	32200	32068	27796
1503	0	32172	32072	27796
1504	0	32156	32064	27784
1505	0	32128	32068	27784
1506	0	32104	32056	27776
1507	0	32080	32048	27768
1508	0	32072	32044	27740
1509	0	32056	32025	27729
1510	0	32040	32036	27710
1511	0	32024	32032	27700
1512	0	32028	32028	27676
1513	0	32000	32036	27676
1514	0	31984	32044	27664
1515	0	31984	32040	27668
1516	0	31980	32032	27672
1517	0	31968	32036	27669
1518	0	31984	32032	27676
1519	0	31968	32044	27670
1520	0	31976	32040	27688
1521	0	31976	32048	27700
1522	0	31932	32044	27728
1523	0	31940	32064	27744
1524	0	31928	32061	27752
1525	0	31912	32058	27752
1526	0	31912	32061	27744
1527	0	31928	32064	27748
1528	0	31928	32060	27733
1529	0	31916	32056	27728
1530	0	31908	32061	27721
1531	0	31912	32080	27712
1532	0	31920	32074	27700
1533	0	31884	32072	27694
1534	0	31870	32077	27672
1535	0	31840	32088	27672
1536	0	31828	32084	27656
1537	0	31816	32084	27660
1538	0	31808	32072	27652
1539	0	31800	32056	27656
1540	0	31784	32044	27648
1541	0	31760	32048	27640
1542	0	31760	32033	27668
1543	0	31741	32028	27676
1544	0	31736	32024	27692
1545	0	31724	32024	27712
1546	0	31704	32024	27728
1547	0	31684	32028	27752
1548	0	31704	32024	27777
1549	0	31728	32028	27781
1550	0	31720	32016	27808
1551	0	31716	32024	27840
1552	0	31716	32032	27848
1553	0	31712	32024	27858
1554	0	31716	32020	27864
1555	0	31716	32009	27876
1556	0	31708	32016	27886
1557	0	31696	32008	27896
1558	0	31688	32006	27912
1559	0	31692	31992	27913
1560	0	31692	31972	27932
1561	0	31680	31968	27928
1562	0	31652	31968	27918
1563	0	31604	31960	27917
1564	0	31584	31944	27928
1565	0	31556	31940	27921
1566	0	31528	31932	27908
1567	0	31528	31936	27888
1568	0	31512	31944	27872
1569	0	31464	31944	27866
1570	0	31448	31936	27856
1571	0	31444	31932	27852
1572	0	31436	31932	27832
1573	0	31416	31929	27832
1574	0	31424	31921	27844
1575	0	31424	31932	27852
1576	0	31444	31936	27866
1577	0	31460	31936	27876
1578	0	31468	31932	27896
1579	0	31472	31944	27928
1580	0	31488	31948	27928
1581	0	31524	31956	27948
1582	0	31524	31953	27952
1583	0	31520	31972	27976
1584	0	31520	31980	27992
1585	0	31512	31996	28000
1586	0	31548	31997	28028
1587	0	31556	31998	28032
1588	0	31572	32004	28056
1589	0	31560	31992	28064
1590	0	31556	32004	28072
1591	0	31536	32020	28069
1592	0	31536	32012	28072
1593	0	31544	32020	28068
1594	0	31536	32012	28060
1595	0	31528	32009	28052
1596	0	31540	32024	28032
1597	0	31504	32024	28012
1598	0	31512	32020	28004
1599	0	31512	32016	27992
1600	0	31496	32020	28000
1601	0	31496	32020	27988
1602	0	31492	32005	27996
1603	0	31488	32000	28012
1604	0	31472	32002	28020
1605	0	31448	32012	28016
1606	0	31436	32024	28013
1607	0	31436	32025	28016
1608	0	31396	32021	28012
1609	0	31368	32020	28016
1610	0	31364	32004	28012
1611	0	31353	32024	27988
1612	0	31340	32024	27984
1613	0	31332	32028	27969
1614	0	31328	32048	27964
1615	0	31288	32044	27964
1616	0	31260	32036	27964
1617	0	31272	32023	27953
1618	0	31276	32020	27944
1619	0	31268	32024	27934
1620	0	31264	32024	27948
1621	0	31268	32024	27936
1622	0	31280	32020	27940
1623	0	31252	32024	27952
1624	0	31244	32036	27956
1625	0	31232	32036	27960
1626	0	31216	32032	27972
1627	0	31200	32014	27976
1628	0	31196	32016	27988
1629	0	31188	32008	27986
1630	0	31172	32012	27984
1631	0	31168	31996	27992
1632	0	31144	32004	27996
1633	0	31129	31988	28008
1634	0	31128	31980	28008
1635	0	31104	31980	28032
1636	0	31077	31972	28032
1637	0	31060	31976	28028
1638	0	31028	31968	28025
1639	0	31016	31968	28028
1640	0	31008	31964	28040
1641	0	31008	31960	28033
1642	0	30996	31968	28024
1643	0	31012	31964	28008
1644	0	30992	31957	28020
1645	0	30984	31944	28020
1646	0	30976	31936	28017
1647	0	30984	31928	28016
1648	0	30976	31944	28016
1649	0	30972	31932	28028
1650	0	30996	31944	28046
1651	0	31012	31948	28061
1652	0	31004	31944	28072
1653	0	31016	31940	28100
1654	0	31020	31936	28109
1655	0	31024	31944	28129
1656	0	31032	31940	28144
1657	0	31040	31940	28152
1658	0	31068	31952	28164
1659	0	31068	31960	28168
1660	0	31060	31956	28168
1661	0	31052	31957	28153
1662	0	31048	31956	28160
1663	0	31040	31965	28148
1664	0	31032	31957	28140
1665	0	31028	31952	28138
1666	0	31020	31956	28136
1667	0	31004	31952	28118
1668	0	30992	31949	28096
1669	0	31012	31968	28076
1670	0	31000	31964	28064
1671	0	30984	31956	28064
1672	0	30976	31944	28052
1673	0	30964	31948	28032
1674	0	30960	31948	28036
1675	0	30944	31960	28046
1676	0	30924	31952	28052
1677	0	30908	31957	28068
1678	0	30912	31964	28072
1679	0	30924	31960	28093
1680	0	30912	31956	28116
1681	0	30908	31950	28136
1682	0	30912	31956	28144
1683	0	30913	31961	28168
1684	0	30917	31972	28160
1685	0	30920	31968	28168
1686	0	30924	31966	28173
1687	0	30900	31964	28173
1688	0	30912	31952	28184
1689	0	30928	31952	28172
1690	0	30928	31972	28156
1691	0	30940	31972	28144
1692	0	30944	31968	28132
1693	0	30932	31964	28144
1694	0	30936	31948	28149
1695	0	30928	31956	28140
1696	0	30952	31956	28157
1697	0	30928	31956	28168
1698	0	30916	31952	28188
1699	0	30880	31952	28204
1700	0	30884	31948	28224
1701	0	30848	31936	28232
1702	0	30857	31928	28252
1703	0	30852	31920	28264
1704	0	30840	31916	28268
1705	0	30812	31900	28287
1706	0	30816	31912	28276
1707	0	30804	31908	28260
1708	0	30760	31920	28261
1709	0	30752	31932	28224
1710	0	30736	31924	28212
1711	0	30704	31920	28200
1712	0	30689	31912	28200
1713	0	30680	31904	28192
1714	0	30664	31896	28176
1715	0	30652	31896	28168
1716	0	30652	31909	28156
1717	0	30640	31924	28148
1718	0	30636	31916	28144
1719	0	30640	31920	28148
1720	0	30632	31920	28133
1721	0	30612	31924	28140
1722	0	30608	31916	28157
1723	0	30600	31924	28170
1724	0	30620	31908	28196
1725	0	30632	31908	28204
1726	0	30648	31908	28236
1727	0	30664	31920	28253
1728	0	30668	31928	28284
1729	0	30664	31919	28316
1730	0	30668	31928	28328
1731	0	30648	31916	28348
1732	0	30608	31904	28344
1733	0	30628	31904	28346
1734	0	30612	31905	28344
1735	0	30608	31900	28340
1736	0	30604	31900	28336
1737	0	30584	31896	28336
1738	0	30556	31892	28340
1739	0	30516	31888	28332
1740	0	30488	31880	28350
1741	0	30452	31872	28356
1742	0	30432	31848	28376
1743	0	30416	31841	28372
1744	0	30408	31848	28357
1745	0	30392	31848	28360
1746	0	30392	31840	28368
1747	0	30404	31844	28376
1748	0	30404	31832	28380
1749	0	30396	31832	28388
1750	0	30388	31832	28381
1751	0	30412	31824	28396
1752	0	30404	31844	28399
1753	0	30400	31860	28400
1754	0	30409	31868	28400
1755	0	30408	31864	28408
1756	0	30416	31871	28416
1757	0	30425	31880	28425
1758	0	30448	31882	28428
1759	0	30460	31880	28440
1760	0	30480	31888	28456
1761	0	30480	31896	28456
1762	0	30480	31888	28468
1763	0	30472	31896	28464
1764	0	30453	31908	28456
1765	0	30440	31900	28449
1766	0	30432	31888	28446
1767	0	30401	31892	28432
1768	0	30392	31900	28428
1769	0	30352	31904	28424
1770	0	30340	31900	28412
1771	0	30332	31896	28404
1772	0	30312	31888	28408
1773	0	30284	31900	28397
1774	0	30256	31908	28404
1775	0	30240	31908	28405
1776	0	30240	31904	28404
1777	0	30240	31914	28400
1778	0	30232	31908	28400
1779	0	30220	31920	28421
1780	0	30232	31928	28420
1781	0	30224	31940	28428
1782	0	30228	31956	28429
1783	0	30248	31948	28432
1784	0	30260	31956	28436
1785	0	30260	31965	28440
1786	0	30264	31972	28440
1787	0	30252	31980	28440
1788	0	30256	31980	28449
1789	0	30264	31976	28448
1790	0	30272	31964	28464
1791	0	30280	31961	28460
1792	0	30276	31964	28448
1793	0	30256	31969	28444
1794	0	30264	31957	28452
1795	0	30256	31961	28444
1796	0	30228	31953	28452
1797	0	30228	31950	28480
1798	0	30224	31945	28481
1799	0	30216	31944	28502
1800	0	30204	31936	28536
1801	0	30216	31944	28540
1802	0	30200	31944	28540
1803	0	30176	31944	28548
1804	0	30160	31940	28560
1805	0	30144	31932	28576
1806	0	30128	31932	28594
1807	0	30132	31924	28612
1808	0	30128	31912	28608
1809	0	30092	31916	28596
1810	0	30078	31908	28596
1811	0	30092	31896	28600
1812	0	30060	31888	28616
1813	0	30048	31885	28608
1814	0	30040	31884	28608
1815	0	30048	31888	28620
1816	0	30052	31876	28644
1817	0	30044	31871	28656
1818	0	30056	31864	28664
1819	0	30048	31864	28680
1820	0	30056	31860	28696
1821	0	30064	31844	28709
1822	0	30056	31856	28720
1823	0	30048	31868	28732
1824	0	30064	31872	28752
1825	0	30048	31865	28766
1826	0	30044	31870	28776
1827	0	30048	31868	28780
1828	0	30040	31861	28792
1829	0	30008	31844	28801
1830	0	30000	31844	28788
1831	0	29984	31845	28788
1832	0	29972	31848	28796
1833	0	29980	31837	28808
1834	0	29948	31852	28796
1835	0	29928	31837	28796
1836	0	29908	31844	28800
1837	0	29896	31848	28809
1838	0	29920	31832	28832
1839	0	29912	31840	28832
1840	0	29888	31840	28844
1841	0	29904	31840	28868
1842	0	29908	31844	28888
1843	0	29892	31860	28908
1844	0	29896	31870	28926
1845	0	29888	31864	28942
1846	0	29880	31864	28940
1847	0	29853	31868	28937
1848	0	29840	31876	28956
1849	0	29840	31868	28945
1850	0	29824	31884	28928
1851	0	29800	31868	28925
1852	0	29792	31860	28912
1853	0	29772	31860	28892
1854	0	29760	31852	28880
1855	0	29749	31869	28856
1856	0	29737	31864	28849
1857	0	29728	31868	28872
1858	0	29716	31872	28888
1859	0	29684	31880	28896
1860	0	29680	31868	28910
1861	0	29664	31868	28936
1862	0	29636	31864	28964
1863	0	29624	31857	28988
1864	0	29620	31860	28996
1865	0	29584	31868	28996
1866	0	29552	31861	28992
1867	0	29544	31852	28988
1868	0	29544	31852	28992
1869	0	29544	31852	28992
1870	0	29528	31852	28989
1871	0	29524	31844	28996
1872	0	29528	31844	29004
1873	0	29532	31846	29000
1874	0	29532	31848	29020
1875	0	29505	31840	29024
1876	0	29512	31848	29036
1877	0	29498	31864	29028
1878	0	29472	31848	29040
1879	0	29464	31836	29048
1880	0	29436	31840	29033
1881	0	29400	31848	29032
1882	0	29380	31844	29024
1883	0	29352	31840	29024
1884	0	29340	31836	29008
1885	0	29313	31832	29004
1886	0	29276	31832	29005
1887	0	29256	31836	28996
1888	0	29256	31848	28992
1889	0	29272	31840	29009
1890	0	29284	31840	29020
1891	0	29272	31832	29040
1892	0	29272	31838	29052
1893	0	29272	31852	29068
1894	0	29288	31852	29104
1895	0	29312	31864	29116
1896	0	29304	31868	29144
1897	0	29304	31856	29168
1898	0	29308	31860	29165
1899	0	29316	31852	29168
1900	0	29300	31848	29176
1901	0	29296	31848	29168
1902	0	29309	31856	29168
1903	0	29320	31856	29168
1904	0	29316	31856	29184
1905	0	29304	31836	29200
1906	0	29284	31828	29213
1907	0	29249	31832	29217
1908	0	29244	31820	29248
1909	0	29228	31820	29252
1910	0	29216	31828	29257
1911	0	29204	31836	29269
1912	0	29192	31836	29296
1913	0	29164	31852	29321
1914	0	29168	31840	29356
1915	0	29160	31840	29369
1916	0	29156	31828	29388
1917	0	29149	31824	29412
1918	0	29168	31824	29413
1919	0	29200	31828	29433
1920	0	29185	31844	29441
1921	0	29204	31840	29460
1922	0	29194	31837	29482
1923	0	29221	31840	29500
1924	0	29248	31836	29524
1925	0	29240	31828	29560
1926	0	29248	31836	29581
1927	0	29280	31836	29592
1928	0	29276	31836	29620
1929	0	29280	31808	29637
1930	0	29296	31822	29648
1931	0	29297	31816	29676
1932	0	29288	31808	29688
1933	0	29281	31796	29700
1934	0	29272	31776	29708
1935	0	29249	31776	29732
1936	0	29232	31780	29760
1937	0	29216	31760	29769
1938	0	29216	31772	29776
1939	0	29216	31756	29792
1940	0	29237	31728	29828
1941	0	29240	31736	29852
1942	0	29216	31744	29880
1943	0	29200	31728	29936
1944	0	29176	31749	29980
1945	0	29164	31740	30024
1946	0	29156	31742	30056
1947	0	29148	31744	30068
1948	0	29116	31744	30072
1949	0	29085	31742	30076
1950	0	29056	31732	30084
1951	0	29008	31732	30092
1952	0	28972	31712	30076
1953	0	28928	31720	30072
1954	0	28900	31708	30076
1955	0	28872	31700	30056
1956	0	28858	31704	30048
1957	0	28852	31684	30048
1958	0	28848	31688	30062
1959	0	28840	31688	30072
1960	0	28832	31700	30061
1961	0	28816	31700	30088
1962	0	28824	31704	30084
1963	0	28816	31688	30104
1964	0	28800	31700	30109
1965	0	28797	31704	30116
1966	0	28804	31712	30116
1967	0	28808	31712	30116
1968	0	28812	31716	30124
1969	0	28820	31710	30128
1970	0	28828	31724	30129
1971	0	28824	31742	30128
1972	0	28804	31756	30136
1973	0	28812	31732	30152
1974	0	28808	31732	30168
1975	0	28792	31736	30174
1976	0	28764	31736	30176
1977	0	28765	31757	30174
1978	0	28728	31744	30184
1979	0	28704	31740	30200
1980	0	28688	31748	30204
1981	0	28656	31744	30240
1982	0	28632	31725	30253
1983	0	28616	31716	30256
1984	0	28592	31708	30264
1985	0	28573	31712	30284
1986	0	28576	31716	30276
1987	0	28564	31732	30280
1988	0	28556	31732	30289
1989	0	28552	31728	30292
1990	0	28560	31728	30304
1991	0	28552	31720	30308
1992	0	28544	31744	30332
1993	0	28560	31738	30336
1994	0	28554	31748	30351
1995	0	28552	31750	30356
1996	0	28560	31772	30346
1997	0	28544	31780	30364
1998	0	28564	31768	30396
1999	0	28552	31784	30404
2000	0	28544	31800	30420
2001	0	28544	31812	30408
2002	0	28524	31816	30404
2003	0	28505	31816	30404
2004	0	28480	31800	30400
2005	0	28474	31792	30401
2006	0	28480	31768	30408
2007	0	28476	31752	30404
2008	0	28464	31743	30400
2009	0	28464	31744	30433
2010	0	28448	31736	30456
2011	0	28432	31744	30484
2012	0	28432	31752	30516
2013	0	28436	31756	30540
2014	0	28432	31756	30568
2015	0	28400	31744	30604
2016	0	28404	31720	30637
2017	0	28400	31729	30672
2018	0	28368	31712	30698
2019	0	28360	31712	30724
2020	0	28360	31700	30732
2021	0	28344	31696	30748
2022	0	28336	31684	30749
2023	0	28332	31684	30748
2024	0	28328	31668	30760
2025	0	28340	31680	30768
2026	0	28344	31680	30772
2027	0	28364	31692	30792
2028	0	28382	31705	30812
2029	0	28404	31700	30840
2030	0	28408	31688	30864
2031	0	28428	31684	30896
2032	0	28445	31696	30916
2033	0	28478	31692	30932
2034	0	28472	31668	30941
2035	0	28472	31680	30968
2036	0	28468	31680	30976
2037	0	28465	31668	31004
2038	0	28472	31662	31056
2039	0	28448	31652	31092
2040	0	28456	31668	31108
2041	0	28436	31664	31148
2042	0	28417	31664	31193
2043	0	28409	31664	31208
2044	0	28400	31656	31216
2045	0	28392	31656	31236
2046	0	28368	31652	31256
2047	0	28336	31652	31276
2048	0	28304	31644	31294
2049	0	28292	31636	31308
2050	0	28264	31648	31312
2051	0	28244	31640	31312
2052	0	28200	31644	31340
2053	0	28164	31644	31341
2054	0	28144	31656	31348
2055	0	28120	31648	31352
2056	0	28102	31636	31344
2057	0	28116	31636	31336
2058	0	28112	31644	31332
2059	0	28096	31632	31333
2060	0	28084	31640	31304
2061	0	28100	31648	31312
2062	0	28108	31664	31324
2063	0	28120	31672	31333
2064	0	28140	31672	31352
2065	0	28160	31672	31364
2066	0	28184	31676	31360
2067	0	28204	31684	31372
2068	0	28212	31692	31385
2069	0	28218	31704	31404
2070	0	28232	31700	31412
2071	0	28216	31700	31440
2072	0	28216	31696	31448
2073	0	28216	31700	31456
2074	0	28188	31676	31484
2075	0	28172	31660	31488
2076	0	28168	31652	31508
2077	0	28156	31649	31540
2078	0	28160	31648	31576
2079	0	28164	31648	31594
2080	0	28172	31624	31629
2081	0	28180	31626	31660
2082	0	28184	31620	31676
2083	0	28168	31620	31696
2084	0	28192	31636	31716
2085	0	28188	31629	31742
2086	0	28208	31628	31740
2087	0	28192	31612	31756
2088	0	28196	31597	31764
2089	0	28200	31592	31772
2090	0	28184	31596	31760
2091	0	28168	31584	31776
2092	0	28144	31584	31777
2093	0	28164	31580	31792
2094	0	28176	31592	31800
2095	0	28176	31580	31816
2096	0	28196	31576	31840
2097	0	28224	31574	31844
2098	0	28220	31568	31852
2099	0	28236	31560	31876
2100	0	28228	31564	31900
2101	0	28200	31560	31916
2102	0	28208	31568	31940
2103	0	28236	31569	31956
2104	0	28249	31556	31968
2105	0	28248	31546	31992
2106	0	28248	31564	32024
2107	0	28244	31572	32052
2108	0	28224	31576	32064
2109	0	28217	31584	32062
2110	0	28184	31576	32076
2111	0	28184	31573	32080
2112	0	28148	31573	32096
2113	0	28144	31568	32112
2114	0	28136	31576	32112
2115	0	28124	31582	32136
2116	0	28100	31580	32136
2117	0	28088	31584	32137
2118	0	28088	31585	32148
2119	0	28080	31576	32164
2120	0	28064	31564	32180
2121	0	28064	31568	32200
2122	0	28064	31568	32208
2123	0	28060	31560	32225
2124	0	28060	31568	32256
2125	0	28060	31576	32253
2126	0	28068	31576	32276
2127	0	28064	31564	32292
2128	0	28064	31560	32324
2129	0	28096	31556	32353
2130	0	28108	31556	32357
2131	0	28112	31556	32376
2132	0	28128	31560	32400
2133	0	28120	31576	32432
2134	0	28128	31588	32464
2135	0	28136	31572	32488
2136	0	28144	31560	32512
2137	0	28136	31560	32544
2138	0	28144	31546	32548
2139	0	28104	31548	32572
2140	0	28069	31548	32592
2141	0	28052	31544	32608
2142	0	28060	31544	32616
2143	0	28048	31536	32636
2144	0	28052	31528	32652
2145	0	28048	31528	32664
2146	0	28064	31536	32668
2147	0	28084	31516	32704
2148	0	28084	31524	32712
2149	0	28104	31520	32716
2150	0	28140	31528	32740
2151	0	28168	31540	32776
2152	0	28200	31544	32816
2153	0	28212	31549	32849
2154	0	28208	31536	32881
2155	0	28206	31544	32904
2156	0	28200	31544	32932
2157	0	28200	31536	32956
2158	0	28184	31529	32952
2159	0	28165	31532	32936
2160	0	28148	31528	32942
2161	0	28148	31520	32956
2162	0	28160	31536	32956
2163	0	28153	31540	32960
2164	0	28152	31544	32984
2165	0	28180	31548	33004
2166	0	28212	31552	33032
2167	0	28240	31560	33053
2168	0	28272	31540	33080
2169	0	28308	31548	33104
2170	0	28328	31532	33128
2171	0	28340	31524	33156
2172	0	28340	31520	33172
2173	0	28328	31512	33196
2174	0	28324	31496	33224
2175	0	28308	31504	33236
2176	0	28304	31508	33260
2177	0	28316	31496	33280
2178	0	28312	31500	33296
2179	0	28304	31504	33320
2180	0	28324	31508	33344
2181	0	28324	31508	33333
2182	0	28336	31512	33358
2183	0	28344	31512	33376
2184	0	28361	31501	33392
2185	0	28376	31500	33416
2186	0	28396	31485	33437
2187	0	28404	31480	33456
2188	0	28420	31496	33484
2189	0	28444	31500	33504
2190	0	28440	31496	33520
2191	0	28432	31492	33544
2192	0	28416	31492	33568
2193	0	28408	31477	33600
2194	0	28392	31484	33620
2195	0	28392	31488	33624
2196	0	28372	31477	33656
2197	0	28360	31476	33700
2198	0	28348	31484	33713
2199	0	28340	31488	33752
2200	0	28329	31488	33768
2201	0	28332	31482	33768
2202	0	28352	31476	33792
2203	0	28356	31468	33788
2204	0	28356	31450	33775
2205	0	28368	31456	33772
2206	0	28340	31452	33772
2207	0	28360	31456	33764
2208	0	28368	31464	33753
2209	0	28392	31464	33744
2210	0	28420	31468	33716
2211	0	28444	31472	33704
2212	0	28466	31484	33676
2213	0	28460	31480	33676
2214	0	28468	31489	33688
2215	0	28496	31492	33700
2216	0	28500	31508	33712
2217	0	28512	31532	33732
2218	0	28516	31556	33760
2219	0	28528	31562	33788
2220	0	28541	31572	33816
2221	0	28548	31576	33841
2222	0	28536	31588	33856
2223	0	28525	31615	33886
2224	0	28516	31597	33936
2225	0	28500	31596	33964
2226	0	28508	31608	33988
2227	0	28480	31608	34004
2228	0	28480	31604	34040
2229	0	28472	31620	34056
2230	0	28468	31584	34084
2231	0	28480	31572	34100
2232	0	28480	31584	34108
2233	0	28456	31600	34128
2234	0	28464	31588	34160
2235	0	28436	31596	34184
2236	0	28448	31588	34208
2237	0	28464	31584	34232
2238	0	28473	31576	34256
2239	0	28476	31584	34272
2240	0	28496	31584	34288
2241	0	28492	31572	34304
2242	0	28504	31580	34328
2243	0	28488	31568	34344
2244	0	28497	31556	34357
2245	0	28480	31541	34356
2246	0	28520	31528	34360
2247	0	28540	31544	34348
2248	0	28540	31556	34368
2249	0	28564	31580	34368
2250	0	28560	31580	34376
2251	0	28540	31584	34380
2252	0	28540	31592	34392
2253	0	28520	31612	34392
2254	0	28508	31620	34424
2255	0	28480	31624	34460
2256	0	28468	31636	34500
2257	0	28480	31644	34540
2258	0	28484	31624	34590
2259	0	28480	31620	34612
2260	0	28476	31620	34636
2261	0	28460	31624	34652
2262	0	28436	31624	34656
2263	0	28400	31624	34676
2264	0	28392	31620	34704
2265	0	28372	31616	34720
2266	0	28352	31592	34744
2267	0	28340	31588	34776
2268	0	28316	31588	34824
2269	0	28308	31585	34860
2270	0	28320	31582	34912
2271	0	28328	31556	34952
2272	0	28336	31556	34968
2273	0	28321	31544	35004
2274	0	28320	31548	35008
2275	0	28321	31528	35020
2276	0	28336	31536	35016
2277	0	28352	31524	35012
2278	0	28372	31528	35000
2279	0	28404	31540	35000
2280	0	28416	31536	34988
2281	0	28424	31536	34980
2282	0	28444	31536	34964
2283	0	28456	31544	34959
2284	0	28480	31552	34964
2285	0	28524	31537	34980
2286	0	28524	31552	34993
2287	0	28524	31548	35016
2288	0	28520	31560	35036
2289	0	28520	31560	35056
2290	0	28520	31552	35096
2291	0	28532	31557	35108
2292	0	28532	31556	35124
2293	0	28544	31564	35136
2294	0	28564	31552	35156
2295	0	28538	31532	35180
2296	0	28569	31548	35176
2297	0	28600	31558	35196
2298	0	28636	31556	35200
2299	0	28668	31568	35212
2300	0	28680	31582	35232
2301	0	28696	31584	35248
2302	0	28716	31588	35268
2303	0	28720	31584	35280
2304	0	28756	31578	35280
2305	0	28776	31576	35280
2306	0	28784	31576	35289
2307	0	28816	31568	35296
2308	0	28848	31576	35288
2309	0	28873	31576	35292
2310	0	28908	31576	35301
2311	0	28968	31572	35296
2312	0	28984	31584	35264
2313	0	29000	31580	35236
2314	0	29004	31577	35188
2315	0	28992	31560	35164
2316	0	29008	31556	35124
2317	0	29008	31580	35088
2318	0	29000	31592	35088
2319	0	28992	31584	35076
2320	0	29001	31568	35080
2321	0	29020	31596	35076
2322	0	29044	31600	35080
2323	0	29028	31588	35092
2324	0	29040	31600	35112
2325	0	29068	31608	35126
2326	0	29064	31608	35128
2327	0	29088	31612	35128
2328	0	29120	31608	35140
2329	0	29136	31620	35148
2330	0	29140	31644	35164
2331	0	29169	31645	35192
2332	0	29168	31637	35200
2333	0	29180	31636	35216
2334	0	29188	31622	35252
2335	0	29156	31624	35256
2336	0	29156	31632	35280
2337	0	29160	31628	35312
2338	0	29156	31632	35336
2339	0	29124	31648	35368
2340	0	29112	31636	35392
2341	0	29120	31632	35416
2342	0	29108	31629	35448
2343	0	29096	31616	35484
2344	0	29080	31629	35500
2345	0	29080	31620	35536
2346	0	29072	31612	35552
2347	0	29084	31624	35585
2348	0	29108	31610	35624
2349	0	29128	31624	35648
2350	0	29148	31628	35680
2351	0	29164	31624	35704
2352	0	29180	31612	35719
2353	0	29212	31597	35704
2354	0	29228	31604	35688
2355	0	29252	31620	35692
2356	0	29276	31616	35696
2357	0	29289	31616	35692
2358	0	29320	31604	35704
2359	0	29332	31604	35704
2360	0	29352	31580	35712
2361	0	29352	31584	35724
2362	0	29352	31588	35704
2363	0	29360	31616	35716
2364	0	29376	31608	35736
2365	0	29376	31588	35772
2366	0	29392	31588	35816
2367	0	29384	31600	35848
2368	0	29408	31600	35888
2369	0	29452	31584	35929
2370	0	29452	31584	35936
2371	0	29488	31568	35940
2372	0	29480	31560	35936
2373	0	29492	31556	35924
2374	0	29536	31556	35925
2375	0	29544	31556	35928
2376	0	29561	31556	35944
2377	0	29592	31556	35964
2378	0	29600	31560	35972
2379	0	29616	31532	36004
2380	0	29620	31536	36021
2381	0	29632	31536	36048
2382	0	29640	31520	36068
2383	0	29676	31512	36109
2384	0	29688	31496	36148
2385	0	29704	31480	36184
2386	0	29716	31490	36228
2387	0	29725	31468	36288
2388	0	29764	31460	36324
2389	0	29792	31452	36392
2390	0	29784	31452	36440
2391	0	29800	31453	36496
2392	0	29792	31456	36564
2393	0	29816	31468	36600
2394	0	29836	31465	36624
2395	0	29832	31456	36648
2396	0	29832	31468	36656
2397	0	29824	31465	36660
2398	0	29832	31480	36648
2399	0	29852	31484	36644
2400	0	29872	31488	36620
2401	0	29876	31492	36576
2402	0	29904	31496	36504
2403	0	29912	31500	36440
2404	0	29984	31496	36372
2405	0	30004	31504	36320
2406	0	30052	31497	36288
2407	0	30084	31524	36264
2408	0	30116	31524	36244
2409	0	30112	31508	36256
2410	0	30137	31512	36252
2411	0	30116	31520	36241
2412	0	30120	31512	36260
2413	0	30116	31504	36304
2414	0	30108	31504	36336
2415	0	30108	31520	36348
2416	0	30096	31508	36376
2417	0	30096	31528	36416
2418	0	30092	31560	36440
2419	0	30104	31564	36476
2420	0	30120	31552	36492
2421	0	30124	31584	36508
2422	0	30132	31564	36509
2423	0	30137	31576	36516
2424	0	30124	31576	36513
2425	0	30140	31556	36526
2426	0	30176	31576	36524
2427	0	30204	31576	36520
2428	0	30232	31568	36524
2429	0	30236	31581	36504
2430	0	30236	31616	36492
2431	0	30220	31628	36492
2432	0	30204	31632	36496
2433	0	30204	31636	36520
2434	0	30212	31636	36536
2435	0	30212	31616	36540
2436	0	30228	31608	36560
2437	0	30236	31636	36568
2438	0	30264	31645	36608
2439	0	30308	31637	36612
2440	0	30336	31653	36620
2441	0	30332	31664	36620
2442	0	30352	31664	36624
2443	0	30336	31672	36644
2444	0	30360	31660	36652
2445	0	30336	31695	36672
2446	0	30344	31692	36682
2447	0	30336	31656	36696
2448	0	30332	31652	36712
2449	0	30344	31656	36732
2450	0	30376	31652	36764
2451	0	30392	31632	36772
2452	0	30416	31612	36760
2453	0	30448	31608	36720
2454	0	30464	31600	36692
2455	0	30464	31600	36664
2456	0	30472	31600	36644
2457	0	30496	31616	36612
2458	0	30504	31624	36568
2459	0	30504	31636	36540
2460	0	30544	31644	36524
2461	0	30568	31656	36524
2462	0	30584	31668	36544
2463	0	30610	31664	36576
2464	0	30616	31660	36596
2465	0	30624	31680	36620
2466	0	30664	31688	36656
2467	0	30688	31666	36712
2468	0	30688	31660	36748
2469	0	30726	31640	36772
2470	0	30740	31624	36808
2471	0	30760	31600	36812
2472	0	30784	31604	36828
2473	0	30804	31612	36848
2474	0	30800	31612	36860
2475	0	30832	31608	36868
2476	0	30856	31592	36892
2477	0	30904	31596	36897
2478	0	30936	31604	36888
2479	0	30952	31600	36868
2480	0	30988	31604	36872
2481	0	31036	31592	36872
2482	0	31052	31612	36860
2483	0	31069	31616	36840
2484	0	31088	31628	36824
2485	0	31096	31632	36820
2486	0	31088	31632	36820
2487	0	31096	31624	36832
2488	0	31080	31626	36860
2489	0	31088	31648	36880
2490	0	31072	31640	36893
2491	0	31056	31629	36916
2492	0	31032	31633	36916
2493	0	30992	31620	36936
2494	0	30992	31640	36952
2495	0	30980	31668	36960
2496	0	30964	31672	36984
2497	0	30964	31684	36980
2498	0	30968	31692	36992
2499	0	30984	31696	36996
2500	0	31016	31728	37008
2501	0	31048	31740	37004
2502	0	31076	31761	36976
2503	0	31104	31772	36974
2504	0	31112	31768	36972
2505	0	31120	31773	36956
2506	0	31149	31772	36948
2507	0	31168	31764	36944
2508	0	31192	31772	36956
2509	0	31220	31768	36976
2510	0	31220	31748	36984
2511	0	31220	31736	36980
2512	0	31208	31728	37000
2513	0	31200	31716	37020
2514	0	31220	31680	37052
2515	0	31228	31676	37088
2516	0	31248	31684	37116
2517	0	31244	31684	37160
2518	0	31248	31688	37200
2519	0	31280	31696	37228
2520	0	31289	31712	37245
2521	0	31324	31712	37276
2522	0	31344	31736	37292
2523	0	31376	31744	37312
2524	0	31380	31737	37332
2525	0	31404	31748	37328
2526	0	31425	31744	37344
2527	0	31480	31752	37348
2528	0	31528	31752	37380
2529	0	31544	31744	37384
2530	0	31580	31752	37420
2531	0	31616	31772	37432
2532	0	31680	31759	37412
2533	0	31688	31748	37405
2534	0	31700	31724	37400
2535	0	31712	31712	37392
2536	0	31728	31708	37400
2537	0	31736	31716	37420
2538	0	31748	31732	37437
2539	0	31768	31736	37452
2540	0	31776	31736	37480
2541	0	31792	31724	37496
2542	0	31836	31736	37508
2543	0	31860	31729	37496
2544	0	31868	31748	37492
2545	0	31904	31740	37492
2546	0	31928	31756	37496
2547	0	31956	31765	37480
2548	0	32012	31744	37448
2549	0	32048	31748	37420
2550	0	32064	31748	37396
2551	0	32088	31764	37380
2552	0	32104	31792	37368
2553	0	32144	31816	37380
2554	0	32196	31848	37376
2555	0	32244	31868	37368
2556	0	32308	31880	37364
2557	0	32340	31904	37380
2558	0	32392	31896	37380
2559	0	32440	31872	37412
2560	0	32480	31872	37464
2561	0	32516	31892	37496
2562	0	32568	31880	37528
2563	0	32616	31880	37572
2564	0	32648	31876	37616
2565	0	32676	31864	37656
2566	0	32680	31828	37676
2567	0	32680	31804	37668
2568	0	32660	31788	37628
2569	0	32656	31756	37588
2570	0	32632	31737	37548
2571	0	32564	31732	37476
2572	0	32528	31717	37428
2573	0	32476	31736	37376
2574	0	32424	31753	37336
2575	0	32404	31748	37292
2576	0	32408	31745	37256
2577	0	32400	31740	37216
2578	0	32408	31728	37184
2579	0	32432	31741	37160
2580	0	32464	31752	37168
2581	0	32480	31760	37192
2582	0	32528	31806	37164
2583	0	32560	31812	37180
2584	0	32608	31816	37192
2585	0	32632	31860	37212
2586	0	32660	31872	37236
2587	0	32704	31900	37256
2588	0	32756	31900	37288
2589	0	32784	31912	37312
2590	0	32796	31904	37352
2591	0	32832	31896	37404
2592	0	32844	31892	37444
2593	0	32849	31876	37488
2594	0	32852	31884	37532
2595	0	32872	31892	37564
2596	0	32888	31904	37552
2597	0	32912	31892	37580
2598	0	32932	31900	37584
2599	0	32948	31916	37584
2600	0	32954	31944	37576
2601	0	32980	31956	37576
2602	0	33008	31960	37556
2603	0	33040	31976	37524
2604	0	33052	31980	37508
2605	0	33064	31989	37480
2606	0	33028	31998	37460
2607	0	33032	32008	37429
2608	0	33020	32004	37412
2609	0	33032	31996	37384
2610	0	33044	32000	37384
2611	0	33048	31972	37380
2612	0	33024	31945	37368
2613	0	33036	31944	37356
2614	0	33032	31941	37344
2615	0	33053	31936	37384
2616	0	33080	31942	37424
2617	0	33096	31944	37472
2618	0	33128	31976	37524
2619	0	33168	31964	37552
2620	0	33188	31964	37584
2621	0	33240	31960	37616
2622	0	33264	31956	37608
2623	0	33296	31968	37612
2624	0	33352	31988	37576
2625	0	33372	32000	37535
2626	0	33388	31992	37500
2627	0	33404	31973	37480
2628	0	33388	31948	37444
2629	0	33392	31924	37440
2630	0	33416	31928	37428
2631	0	33432	31928	37408
2632	0	33416	31933	37412
2633	0	33420	31944	37416
2634	0	33437	31956	37420
2635	0	33444	31964	37460
2636	0	33448	31968	37516
2637	0	33472	31984	37552
2638	0	33500	31992	37598
2639	0	33552	31964	37656
2640	0	33580	31960	37692
2641	0	33604	31968	37724
2642	0	33616	31968	37752
2643	0	33656	31976	37766
2644	0	33672	31988	37760
2645	0	33684	31998	37760
2646	0	33696	32008	37744
2647	0	33728	32024	37736
2648	0	33728	32052	37696
2649	0	33756	32060	37700
2650	0	33752	32080	37668
2651	0	33796	32096	37652
2652	0	33816	32100	37612
2653	0	33808	32084	37580
2654	0	33780	32076	37545
2655	0	33780	32072	37504
2656	0	33752	32060	37460
2657	0	33728	32056	37424
2658	0	33680	32068	37380
2659	0	33656	32064	37348
2660	0	33620	32056	37336
2661	0	33592	32060	37328
2662	0	33576	32068	37320
2663	0	33576	32060	37316
2664	0	33592	32064	37308
2665	0	33592	32060	37304
2666	0	33604	32056	37312
2667	0	33628	32072	37340
2668	0	33648	32089	37364
2669	0	33688	32088	37396
2670	0	33736	32092	37412
2671	0	33760	32104	37432
2672	0	33816	32092	37456
2673	0	33856	32090	37468
2674	0	33916	32080	37504
2675	0	33960	32092	37536
2676	0	34020	32104	37528
2677	0	34072	32100	37540
2678	0	34112	32096	37540
2679	0	34144	32096	37536
2680	0	34160	32096	37544
2681	0	34160	32096	37544
2682	0	34156	32116	37533
2683	0	34144	32120	37540
2684	0	34180	32112	37520
2685	0	34192	32124	37512
2686	0	34240	32128	37536
2687	0	34264	32148	37552
2688	0	34304	32156	37552
2689	0	34364	32152	37608
2690	0	34440	32164	37652
2691	0	34520	32180	37682
2692	0	34592	32168	37692
2693	0	34648	32132	37680
2694	0	34693	32092	37660
2695	0	34700	32084	37616
2696	0	34680	32060	37556
2697	0	34628	32016	37496
2698	0	34552	32000	37408
2699	0	34488	31992	37325
2700	0	34416	31988	37244
2701	0	34368	31972	37184
2702	0	34320	31968	37112
2703	0	34304	31960	37040
2704	0	34336	31964	36997
2705	0	34368	31964	36988
2706	0	34408	31980	36976
2707	0	34496	31976	36984
2708	0	34588	31984	37000
2709	0	34712	31976	37032
2710	0	34794	31980	37056
2711	0	34848	31984	37080
2712	0	34896	31972	37104
2713	0	34916	31952	37116
2714	0	34920	31936	37100
2715	0	34900	31900	37100
2716	0	34832	31912	37084
2717	0	34776	31896	37068
2718	0	34708	31896	37060
2719	0	34636	31901	37036
2720	0	34592	31901	37016
2721	0	34556	31916	36992
2722	0	34532	31932	36964
2723	0	34552	31928	36948
2724	0	34564	31957	36912
2725	0	34584	31956	36856
2726	0	34628	31940	36808
2727	0	34664	31928	36784
2728	0	34674	31944	36768
2729	0	34664	31972	36756
2730	0	34664	31964	36764
2731	0	34680	31960	36780
2732	0	34652	31974	36804
2733	0	34660	31996	36810
2734	0	34648	32004	36844
2735	0	34672	32016	36872
2736	0	34704	32024	36920
2737	0	34752	32047	36958
2738	0	34800	32078	37000
2739	0	34872	32092	37036
2740	0	34920	32102	37056
2741	0	35000	32108	37081
2742	0	35032	32094	37116
2743	0	35088	32096	37136
2744	0	35132	32104	37153
2745	0	35168	32096	37168
2746	0	35188	32104	37184
2747	0	35208	32100	37176
2748	0	35240	32124	37172
2749	0	35272	32124	37164
2750	0	35288	32108	37172
2751	0	35312	32124	37164
2752	0	35324	32142	37160
2753	0	35352	32156	37168
2754	0	35392	32148	37180
2755	0	35440	32136	37197
2756	0	35480	32140	37204
2757	0	35504	32160	37200
2758	0	35544	32152	37192
2759	0	35568	32140	37176
2760	0	35568	32156	37160
2761	0	35536	32164	37144
2762	0	35520	32148	37104
2763	0	35472	32120	37081
2764	0	35428	32112	37048
2765	0	35404	32108	36997
2766	0	35340	32104	36916
2767	0	35313	32108	36862
2768	0	35280	32096	36812
2769	0	35280	32109	36760
2770	0	35268	32112	36736
2771	0	35272	32112	36712
2772	0	35296	32108	36712
2773	0	35328	32100	36708
2774	0	35392	32100	36712
2775	0	35480	32104	36736
2776	0	35552	32096	36748
2777	0	35608	32096	36780
2778	0	35664	32096	36800
2779	0	35696	32104	36824
2780	0	35724	32116	36848
2781	0	35744	32112	36860
2782	0	35776	32088	36880
2783	0	35768	32088	36872
2784	0	35776	32110	36872
2785	0	35768	32128	36848
2786	0	35768	32104	36828
2787	0	35780	32092	36805
2788	0	35792	32104	36772
2789	0	35836	32112	36760
2790	0	35872	32104	36740
2791	0	35920	32100	36700
2792	0	35984	32104	36672
2793	0	36024	32080	36624
2794	0	36004	32045	36580
2795	0	35996	32032	36536
2796	0	35944	32016	36509
2797	0	35876	31992	36468
2798	0	35796	31964	36460
2799	0	35712	31936	36460
2800	0	35640	31944	36472
2801	0	35577	31952	36484
2802	0	35548	31952	36480
2803	0	35536	31968	36480
2804	0	35544	31984	36492
2805	0	35572	31985	36504
2806	0	35616	31996	36500
2807	0	35664	31994	36500
2808	0	35720	32012	36484
2809	0	35776	32020	36476
2810	0	35820	32028	36468
2811	0	35868	32028	36476
2812	0	35912	32024	36464
2813	0	35944	32028	36480
2814	0	35992	32028	36488
2815	0	36000	32036	36488
2816	0	36012	32040	36504
2817	0	36004	32040	36512
2818	0	36024	32036	36520
2819	0	36032	32044	36528
2820	0	36024	32068	36528
2821	0	36016	32064	36544
2822	0	36012	32084	36552
2823	0	36012	32104	36552
2824	0	36000	32120	36544
2825	0	36004	32140	36544
2826	0	35992	32140	36548
2827	0	35976	32164	36552
2828	0	35960	32193	36528
2829	0	35952	32192	36536
2830	0	35952	32192	36544
2831	0	35948	32192	36564
2832	0	35920	32176	36572
2833	0	35880	32153	36560
2834	0	35872	32145	36548
2835	0	35872	32140	36552
2836	0	35880	32128	36520
2837	0	35884	32124	36512
2838	0	35892	32120	36500
2839	0	35908	32116	36492
2840	0	35936	32113	36476
2841	0	35944	32116	36472
2842	0	35960	32124	36446
2843	0	35984	32126	36448
2844	0	36008	32113	36452
2845	0	36020	32116	36452
2846	0	36029	32104	36460
2847	0	36064	32116	36472
2848	0	36068	32101	36448
2849	0	36080	32096	36452
2850	0	36096	32088	36448
2851	0	36088	32084	36440
2852	0	36084	32072	36428
2853	0	36072	32068	36416
2854	0	36064	32084	36400
2855	0	36040	32072	36376
2856	0	36016	32088	36348
2857	0	36036	32101	36316
2858	0	36028	32117	36288
2859	0	36024	32116	36268
2860	0	36032	32108	36256
2861	0	36032	32109	36240
2862	0	36032	32104	36233
2863	0	36024	32112	36224
2864	0	36040	32104	36236
2865	0	36024	32108	36244
2866	0	36036	32100	36261
2867	0	36064	32088	36288
2868	0	36072	32096	36300
2869	0	36092	32084	36316
2870	0	36104	32088	36328
2871	0	36124	32088	36344
2872	0	36152	32096	36348
2873	0	36160	32096	36368
2874	0	36172	32096	36356
2875	0	36168	32108	36350
2876	0	36164	32104	36372
2877	0	36160	32120	36364
2878	0	36168	32112	36350
2879	0	36176	32104	36328
2880	0	36148	32112	36308
2881	0	36136	32116	36312
2882	0	36128	32104	36297
2883	0	36112	32105	36288
2884	0	36136	32104	36304
2885	0	36144	32116	36276
2886	0	36144	32132	36276
2887	0	36168	32120	36288
2888	0	36216	32113	36308
2889	0	36248	32128	36316
2890	0	36240	32116	36336
2891	0	36280	32140	36332
2892	0	36300	32166	36344
2893	0	36344	32176	36360
2894	0	36368	32180	36392
2895	0	36400	32184	36416
2896	0	36416	32185	36440
2897	0	36400	32168	36428
2898	0	36400	32144	36448
2899	0	36408	32140	36440
2900	0	36376	32160	36425
2901	0	36380	32162	36408
2902	0	36376	32173	36392
2903	0	36368	32185	36348
2904	0	36336	32188	36320
2905	0	36344	32188	36300
2906	0	36336	32192	36264
2907	0	36344	32196	36252
2908	0	36328	32196	36220
2909	0	36316	32188	36228
2910	0	36328	32176	36236
2911	0	36320	32168	36240
2912	0	36320	32180	36244
2913	0	36324	32176	36256
2914	0	36352	32172	36268
2915	0	36344	32176	36284
2916	0	36344	32164	36296
2917	0	36352	32168	36300
2918	0	36360	32164	36312
2919	0	36352	32173	36304
2920	0	36352	32168	36300
2921	0	36344	32180	36296
2922	0	36352	32172	36260
2923	0	36348	32165	36232
2924	0	36344	32156	36200
2925	0	36352	32156	36176
2926	0	36340	32132	36152
2927	0	36344	32120	36136
2928	0	36340	32104	36104
2929	0	36336	32108	36080
2930	0	36344	32116	36060
2931	0	36336	32104	36056
2932	0	36336	32100	36040
2933	0	36336	32104	36025
2934	0	36360	32088	36024
2935	0	36336	32108	36028
2936	0	36360	32108	36032
2937	0	36376	32109	36032
2938	0	36388	32116	36028
2939	0	36400	32132	36016
2940	0	36420	32128	36032
2941	0	36440	32133	36032
2942	0	36448	32142	36044
2943	0	36468	32148	36028
2944	0	36472	32156	36032
2945	0	36488	32156	36028
2946	0	36508	32144	36024
2947	0	36536	32156	36020
2948	0	36560	32164	36033
2949	0	36600	32148	36052
2950	0	36652	32164	36076
2951	0	36676	32168	36081
2952	0	36680	32200	36080
2953	0	36728	32276	36076
2954	0	36828	32397	36132
2955	0	37112	32320	36264
2956	0	37392	32376	36284
2957	0	37512	32376	36144
2958	0	37496	32280	35940
2959	0	37352	32136	35816
2960	0	37152	32020	35784
2961	0	36880	31984	35828
2962	0	36572	31972	35888
2963	0	36252	31936	35932
2964	0	35932	31937	35952
2965	0	35656	31964	35944
2966	0	35480	31989	35960
2967	0	35396	32048	35912
2968	0	35396	32088	35892
2969	0	35472	32096	35856
2970	0	35628	32132	35816
2971	0	35824	32172	35784
2972	0	36048	32188	35756
2973	0	36244	32193	35756
2974	0	36444	32192	35752
2975	0	36632	32204	35780
2976	0	36781	32193	35828
2977	0	36860	32173	35880
2978	0	36932	32174	35921
2979	0	36956	32172	35976
2980	0	36936	32160	36012
2981	0	36928	32168	36040
2982	0	36904	32172	36064
2983	0	36880	32156	36060
2984	0	36864	32164	36044
2985	0	36848	32164	36024
2986	0	36820	32176	35976
2987	0	36792	32193	35948
2988	0	36760	32204	35900
2989	0	36748	32212	35864
2990	0	36752	32216	35832
2991	0	36700	32192	35816
2992	0	36680	32176	35776
2993	0	36656	32180	35772
2994	0	36624	32184	35760
2995	0	36608	32176	35774
2996	0	36624	32168	35776
2997	0	36608	32153	35776
2998	0	36608	32168	35776
2999	0	36656	32168	35788
3000	0	36672	32160	35788
3001	0	36700	32180	35804
3002	0	36736	32196	35800
3003	0	36780	32192	35788
3004	0	36824	32188	35776
3005	0	36844	32176	35780
3006	0	36908	32184	35764
3007	0	36928	32188	35752
3008	0	36936	32192	35737
3009	0	36928	32204	35708
3010	0	36904	32213	35676
3011	0	36880	32188	35644
3012	0	36864	32172	35632
3013	0	36824	32164	35620
3014	0	36816	32184	35592
3015	0	36804	32184	35576
3016	0	36800	32200	35572
3017	0	36816	32216	35564
3018	0	36856	32208	35577
3019	0	36936	32252	35596
3020	0	37104	32468	35676
3021	0	37508	32392	35780
3022	0	37768	32401	35704
3023	0	37808	32380	35500
3024	0	37744	32280	35356
3025	0	37624	32145	35316
3026	0	37464	32070	35316
3027	0	37240	32020	35344
3028	0	36940	31968	35380
3029	0	36656	31956	35416
3030	0	36400	31952	35436
3031	0	36176	31972	35448
3032	0	36016	32008	35456
3033	0	35924	32024	35432
3034	0	35920	32056	35364
3035	0	35972	32086	35296
3036	0	36096	32128	35240
3037	0	36240	32164	35196
3038	0	36412	32174	35136
3039	0	36592	32192	35116
3040	0	36776	32200	35104
3041	0	36920	32192	35112
3042	0	37052	32184	35120
3043	0	37160	32188	35168
3044	0	37252	32184	35248
3045	0	37333	32172	35320
3046	0	37384	32164	35384
3047	0	37428	32184	35460
3048	0	37452	32201	35500
3049	0	37456	32208	35528
3050	0	37464	32216	35536
3051	0	37484	32228	35528
3052	0	37464	32241	35520
3053	0	37472	32237	35520
3054	0	37464	32256	35488
3055	0	37440	32272	35444
3056	0	37424	32288	35389
3057	0	37388	32288	35352
3058	0	37356	32268	35312
3059	0	37312	32268	35268
3060	0	37256	32264	35244
3061	0	37260	32252	35244
3062	0	37260	32260	35240
3063	0	37248	32271	35264
3064	0	37284	32296	35260
3065	0	37296	32284	35265
3066	0	37328	32292	35264
3067	0	37388	32288	35260
3068	0	37440	32276	35240
3069	0	37460	32288	35209
3070	0	37464	32300	35192
3071	0	37480	32264	35188
3072	0	37476	32241	35188
3073	0	37456	32232	35193
3074	0	37456	32232	35176
3075	0	37452	32228	35168
3076	0	37432	32216	35168
3077	0	37408	32228	35172
3078	0	37376	32260	35140
3079	0	37340	32232	35116
3080	0	37336	32220	35100
3081	0	37312	32240	35100
3082	0	37312	32236	35120
3083	0	37328	32216	35112
3084	0	37320	32236	35089
3085	0	37348	32244	35084
3086	0	37360	32236	35057
3087	0	37356	32240	35032
3088	0	37388	32228	34996
3089	0	37400	32216	34960
3090	0	37432	32248	34928
3091	0	37448	32232	34900
3092	0	37440	32236	34864
3093	0	37440	32232	34824
3094	0	37428	32236	34792
3095	0	37448	32220	34776
3096	0	37432	32212	34768
3097	0	37428	32224	34762
3098	0	37416	32220	34748
3099	0	37420	32228	34744
3100	0	37416	32232	34748
3101	0	37408	32208	34736
3102	0	37404	32216	34736
3103	0	37392	32216	34716
3104	0	37392	32204	34720
3105	0	37400	32228	34712
3106	0	37372	32236	34684
3107	0	37368	32216	34684
3108	0	37376	32220	34672
3109	0	37356	32220	34640
3110	0	37372	32204	34632
3111	0	37377	32208	34590
3112	0	37376	32220	34568
3113	0	37404	32220	34544
3114	0	37440	32192	34540
3115	0	37452	32196	34544
3116	0	37448	32196	34556
3117	0	37472	32192	34556
3118	0	37456	32189	34556
3119	0	37448	32196	34568
3120	0	37452	32220	34574
3121	0	37464	32220	34564
3122	0	37500	32245	34568
3123	0	37520	32252	34556
3124	0	37516	32232	34552
3125	0	37496	32238	34540
3126	0	37500	32220	34553
3127	0	37496	32228	34564
3128	0	37472	32232	34572
3129	0	37480	32238	34584
3130	0	37476	32248	34592
3131	0	37480	32264	34597
3132	0	37488	32268	34604
3133	0	37488	32268	34612
3134	0	37496	32248	34612
3135	0	37500	32252	34616
3136	0	37528	32272	34608
3137	0	37552	32276	34608
3138	0	37560	32292	34600
3139	0	37560	32308	34588
3140	0	37584	32320	34592
3141	0	37592	32328	34589
3142	0	37596	32308	34593
3143	0	37584	32316	34600
3144	0	37560	32308	34608
3145	0	37552	32312	34616
3146	0	37584	32316	34632
3147	0	37600	32324	34628
3148	0	37600	32324	34644
3149	0	37620	32336	34648
3150	0	37616	32312	34644
3151	0	37656	32300	34644
3152	0	37680	32324	34624
3153	0	37696	32316	34633
3154	0	37720	32344	34608
3155	0	37740	32324	34592
3156	0	37708	32337	34592
3157	0	37680	32336	34584
3158	0	37664	32348	34560
3159	0	37620	32348	34544
3160	0	37600	32348	34532
3161	0	37592	32364	34521
3162	0	37552	32340	34520
3163	0	37524	32324	34510
3164	0	37512	32309	34496
3165	0	37512	32296	34468
3166	0	37528	32288	34464
3167	0	37532	32286	34460
3168	0	37556	32284	34452
3169	0	37584	32304	34460
3170	0	37620	32304	34456
3171	0	37672	32308	34472
3172	0	37720	32320	34476
3173	0	37752	32336	34477
3174	0	37796	32332	34484
3175	0	37824	32324	34480
3176	0	37825	32340	34464
3177	0	37824	32340	34460
3178	0	37808	32304	34452
3179	0	37776	32296	34420
3180	0	37712	32312	34381
3181	0	37696	32312	34328
3182	0	37660	32304	34272
3183	0	37608	32296	34228
3184	0	37568	32260	34200
3185	0	37576	32232	34160
3186	0	37544	32237	34124
3187	0	37568	32232	34088
3188	0	37612	32220	34068
3189	0	37652	32208	34048
3190	0	37700	32217	34038
3191	0	37732	32233	34060
3192	0	37728	32220	34076
3193	0	37736	32222	34112
3194	0	37712	32212	34128
3195	0	37680	32204	34160
3196	0	37640	32228	34192
3197	0	37616	32232	34200
3198	0	37564	32240	34192
3199	0	37524	32224	34200
3200	0	37492	32224	34172
3201	0	37440	32224	34148
3202	0	37416	32220	34120
3203	0	37408	32228	34088
3204	0	37408	32216	34064
3205	0	37424	32222	34040
3206	0	37436	32224	34032
3207	0	37440	32228	34028
3208	0	37472	32221	34048
3209	0	37512	32236	34049
3210	0	37534	32229	34052
3211	0	37564	32220	34080
3212	0	37608	32232	34097
3213	0	37636	32232	34112
3214	0	37668	32238	34120
3215	0	37704	32236	34144
3216	0	37724	32232	34148
3217	0	37728	32252	34156
3218	0	37728	32269	34144
3219	0	37712	32276	34148
3220	0	37741	32284	34144
3221	0	37736	32304	34148
3222	0	37752	32324	34124
3223	0	37760	32320	34116
3224	0	37790	32312	34108
3225	0	37800	32312	34124
3226	0	37840	32304	34112
3227	0	37852	32312	34120
3228	0	37860	32312	34112
3229	0	37868	32308	34100
3230	0	37888	32316	34080
3231	0	37912	32364	34092
3232	0	38048	32516	34116
3233	0	38356	32508	34168
3234	0	38680	32588	34128
3235	0	38840	32604	33908
3236	0	38852	32508	33680
3237	0	38792	32364	33580
3238	0	38704	32252	33600
3239	0	38584	32184	33700
3240	0	38404	32160	33800
3241	0	38157	32149	33888
3242	0	37868	32124	33988
3243	0	37584	32112	34092
3244	0	37352	32100	34169
3245	0	37160	32108	34204
3246	0	37000	32112	34200
3247	0	36896	32116	34188
3248	0	36824	32132	34152
3249	0	36840	32168	34084
3250	0	36868	32172	34016
3251	0	36928	32206	33940
3252	0	37060	32212	33856
3253	0	37200	32216	33800
3254	0	37344	32232	33737
3255	0	37464	32244	33692
3256	0	37600	32245	33648
3257	0	37720	32256	33612
3258	0	37832	32252	33600
3259	0	37932	32249	33596
3260	0	38004	32252	33608
3261	0	38080	32236	33612
3262	0	38108	32244	33616
3263	0	38124	32220	33628
3264	0	38124	32248	33608
3265	0	38104	32252	33600
3266	0	38080	32260	33604
3267	0	38060	32264	33584
3268	0	38008	32256	33584
3269	0	37952	32248	33568
3270	0	37892	32252	33560
3271	0	37824	32260	33565
3272	0	37776	32253	33564
3273	0	37752	32257	33560
3274	0	37712	32264	33568
3275	0	37680	32264	33564
3276	0	37656	32260	33564
3277	0	37648	32256	33564
3278	0	37640	32248	33560
3279	0	37672	32248	33568
3280	0	37708	32244	33564
3281	0	37752	32236	33568
3282	0	37784	32236	33548
3283	0	37792	32232	33528
3284	0	37840	32244	33512
3285	0	37880	32256	33480
3286	0	37924	32264	33480
3287	0	37960	32252	33476
3288	0	37984	32244	33480
3289	0	37992	32254	33472
3290	0	38016	32265	33472
3291	0	38008	32256	33488
3292	0	38004	32264	33480
3293	0	37968	32260	33488
3294	0	37928	32276	33492
3295	0	37896	32281	33484
3296	0	37872	32276	33488
3297	0	37844	32272	33464
3298	0	37808	32268	33468
3299	0	37792	32252	33456
3300	0	37772	32252	33456
3301	0	37752	32272	33432
3302	0	37756	32276	33432
3303	0	37760	32280	33420
3304	0	37760	32296	33416
3305	0	37800	32308	33428
3306	0	37844	32320	33428
3307	0	37888	32320	33444
3308	0	37940	32328	33456
3309	0	37984	32340	33464
3310	0	38036	32336	33476
3311	0	38072	32328	33484
3312	0	38108	32316	33492
3313	0	38136	32316	33472
3314	0	38145	32312	33464
3315	0	38144	32312	33464
3316	0	38108	32324	33452
3317	0	38076	32337	33432
3318	0	38033	32356	33404
3319	0	37969	32364	33384
3320	0	37868	32377	33356
3321	0	37808	32388	33344
3322	0	37736	32392	33304
3323	0	37688	32392	33296
3324	0	37648	32392	33288
3325	0	37624	32404	33285
3326	0	37616	32414	33300
3327	0	37630	32412	33297
3328	0	37676	32424	33328
3329	0	37752	32440	33348
3330	0	37824	32440	33368
3331	0	37944	32424	33380
3332	0	38016	32440	33408
3333	0	38096	32448	33424
3334	0	38152	32461	33428
3335	0	38208	32472	33436
3336	0	38240	32484	33448
3337	0	38252	32508	33428
3338	0	38236	32516	33412
3339	0	38184	32520	33400
3340	0	38124	32528	33388
3341	0	38080	32524	33388
3342	0	38052	32532	33372
3343	0	38000	32532	33372
3344	0	37984	32528	33360
3345	0	37964	32516	33352
3346	0	37984	32536	33340
3347	0	38012	32552	33308
3348	0	38056	32576	33288
3349	0	38144	32636	33272
3350	0	38368	32860	33300
3351	0	39040	33168	33472
3352	0	39744	33192	33312
3353	0	39968	33135	32792
3354	0	39896	32952	32332
3355	0	39752	32636	32160
3356	0	39528	32396	32192
3357	0	39184	32231	32352
3358	0	38720	32180	32588
3359	0	38240	32112	32888
3360	0	37720	32104	33188
3361	0	37276	32132	33480
3362	0	36864	32200	33661
3363	0	36592	32224	33748
3364	0	36388	32224	33772
3365	0	36312	32212	33720
3366	0	36352	32232	33628
3367	0	36464	32280	33484
3368	0	36648	32312	33288
3369	0	36852	32324	33092
3370	0	37092	32330	32884
3371	0	37316	32312	32700
3372	0	37576	32301	32574
3373	0	37788	32288	32476
3374	0	37992	32300	32392
3375	0	38128	32284	32344
3376	0	38240	32284	32329
3377	0	38336	32272	32336
3378	0	38376	32268	32344
3379	0	38400	32252	32380
3380	0	38408	32236	32396
3381	0	38392	32236	32424
3382	0	38368	32242	32436
3383	0	38312	32240	32440
3384	0	38264	32260	32448
3385	0	38184	32280	32440
3386	0	38116	32300	32444
3387	0	38020	32312	32432
3388	0	37920	32324	32432
3389	0	37824	32320	32436
3390	0	37748	32316	32428
3391	0	37676	32321	32452
3392	0	37608	32309	32461
3393	0	37568	32308	32476
3394	0	37532	32300	32488
3395	0	37520	32301	32496
3396	0	37544	32302	32500
3397	0	37596	32296	32500
3398	0	37632	32304	32504
3399	0	37688	32316	32492
3400	0	37748	32324	32472
3401	0	37840	32344	32448
3402	0	37928	32372	32408
3403	0	38008	32364	32396
3404	0	38100	32376	32372
3405	0	38152	32392	32360
3406	0	38200	32400	32344
3407	0	38192	32412	32330
3408	0	38192	32424	32352
3409	0	38168	32420	32376
3410	0	38144	32416	32388
3411	0	38092	32414	32404
3412	0	38040	32404	32416
3413	0	37960	32388	32448
3414	0	37920	32404	32453
3415	0	37884	32400	32464
3416	0	37852	32392	32470
3417	0	37828	32404	32456
3418	0	37832	32408	32456
3419	0	37832	32424	32454
3420	0	37840	32432	32452
3421	0	37848	32440	32448
3422	0	37884	32452	32448
3423	0	37928	32464	32460
3424	0	37956	32468	32448
3425	0	37988	32476	32461
3426	0	37988	32484	32476
3427	0	38012	32500	32480
3428	0	38032	32485	32488
3429	0	38016	32484	32496
3430	0	38040	32464	32504
3431	0	38032	32472	32494
3432	0	38008	32468	32496
3433	0	37968	32485	32484
3434	0	37952	32480	32476
3435	0	37928	32484	32452
3436	0	37920	32496	32440
3437	0	37896	32512	32412
3438	0	37884	32516	32376
3439	0	37884	32521	32344
3440	0	37872	32516	32322
3441	0	37904	32540	32292
3442	0	37904	32540	32280
3443	0	37920	32549	32261
3444	0	37944	32536	32228
3445	0	37992	32524	32216
3446	0	38020	32512	32200
3447	0	38044	32516	32172
3448	0	38076	32504	32152
3449	0	38164	32508	32122
3450	0	38216	32505	32096
3451	0	38272	32508	32068
3452	0	38328	32548	32024
3453	0	38384	32552	31976
3454	0	38488	32596	31948
3455	0	38672	32776	31900
3456	0	39140	33072	31896
3457	0	39700	33072	31668
3458	0	39840	33020	31160
3459	0	39772	32836	30744
3460	0	39616	32580	30612
3461	0	39384	32352	30680
3462	0	39000	32212	30872
3463	0	38584	32136	31208
3464	0	38136	32088	31600
3465	0	37684	32069	32016
3466	0	37256	32088	32396
3467	0	36892	32152	32652
3468	0	36604	32180	32828
3469	0	36408	32204	32896
3470	0	36280	32208	32892
3471	0	36268	32189	32798
3472	0	36328	32192	32648
3473	0	36476	32217	32444
3474	0	36648	32232	32216
3475	0	36864	32244	31992
3476	0	37088	32256	31780
3477	0	37324	32249	31588
3478	0	37552	32256	31424
3479	0	37752	32276	31304
3480	0	37928	32276	31208
3481	0	38064	32268	31142
3482	0	38172	32284	31100
3483	0	38264	32284	31088
3484	0	38296	32288	31104
3485	0	38296	32296	31132
3486	0	38272	32296	31180
3487	0	38216	32292	31244
3488	0	38152	32276	31292
3489	0	38068	32280	31345
3490	0	38008	32300	31404
3491	0	37932	32305	31452
3492	0	37872	32320	31488
3493	0	37796	32320	31540
3494	0	37744	32332	31552
3495	0	37704	32356	31578
3496	0	37676	32352	31576
3497	0	37672	32364	31584
3498	0	37684	32380	31588
3499	0	37696	32380	31592
3500	0	37720	32392	31601
3501	0	37732	32385	31598
3502	0	37784	32392	31600
3503	0	37812	32376	31596
3504	0	37840	32388	31592
3505	0	37864	32400	31588
3506	0	37904	32388	31576
3507	0	37904	32392	31564
3508	0	37916	32392	31560
3509	0	37928	32388	31536
3510	0	37952	32408	31524
3511	0	37980	32408	31504
3512	0	37988	32416	31500
3513	0	38000	32412	31488
3514	0	38000	32420	31484
3515	0	38008	32436	31493
3516	0	38012	32440	31516
3517	0	38016	32440	31544
3518	0	37985	32444	31588
3519	0	37968	32452	31624
3520	0	37960	32452	31660
3521	0	37924	32452	31680
3522	0	37912	32448	31712
3523	0	37884	32448	31724
3524	0	37840	32448	31736
3525	0	37816	32444	31744
3526	0	37796	32465	31721
3527	0	37824	32477	31708
3528	0	37832	32493	31690
3529	0	37832	32509	31668
3530	0	37824	32544	31640
3531	0	37836	32556	31624
3532	0	37824	32576	31616
3533	0	37836	32576	31623
3534	0	37832	32592	31608
3535	0	37808	32596	31604
3536	0	37816	32593	31588
3537	0	37828	32584	31600
3538	0	37832	32592	31608
3539	0	37852	32580	31612
3540	0	37868	32592	31608
3541	0	37884	32596	31608
3542	0	37904	32580	31604
3543	0	37908	32576	31608
3544	0	37896	32584	31600
3545	0	37896	32592	31584
3546	0	37912	32592	31564
3547	0	37928	32580	31540
3548	0	37940	32568	31528
3549	0	37932	32540	31528
3550	0	37940	32544	31516
3551	0	37912	32528	31508
3552	0	37892	32512	31500
3553	0	37888	32508	31500
3554	0	37880	32488	31512
3555	0	37872	32481	31512
3556	0	37864	32484	31508
3557	0	37852	32476	31508
3558	0	37832	32464	31492
3559	0	37816	32464	31488
3560	0	37796	32456	31492
3561	0	37776	32460	31488
3562	0	37768	32464	31486
3563	0	37768	32472	31476
3564	0	37744	32484	31480
3565	0	37724	32508	31472
3566	0	37700	32504	31500
3567	0	37696	32504	31508
3568	0	37681	32520	31508
3569	0	37664	32522	31520
3570	0	37632	32540	31540
3571	0	37608	32524	31557
3572	0	37584	32528	31568
3573	0	37592	32556	31566
3574	0	37592	32560	31592
3575	0	37596	32556	31588
3576	0	37628	32576	31588
3577	0	37628	32578	31596
3578	0	37676	32572	31592
3579	0	37704	32560	31584
3580	0	37760	32560	31568
3581	0	37816	32564	31536
3582	0	37848	32560	31508
3583	0	37892	32576	31481
3584	0	37936	32568	31456
3585	0	37972	32580	31428
3586	0	37996	32589	31404
3587	0	38004	32592	31380
3588	0	38016	32588	31364
3589	0	38040	32573	31340
3590	0	38052	32564	31332
3591	0	38040	32572	31329
3592	0	38032	32584	31324
3593	0	38021	32576	31316
3594	0	38040	32588	31310
3595	0	38024	32584	31312
3596	0	38040	32584	31292
3597	0	38052	32576	31300
3598	0	38032	32584	31288
3599	0	38040	32580	31292
3600	0	38032	32568	31300
3601	0	38016	32562	31292
3602	0	38008	32560	31296
3603	0	37980	32564	31324
3604	0	37960	32568	31337
3605	0	37928	32560	31352
3606	0	37916	32572	31360
3607	0	37886	32560	31352
3608	0	37872	32580	31360
3609	0	37856	32576	31356
3610	0	37860	32584	31348
3611	0	37872	32588	31349
3612	0	37868	32596	31344
3613	0	37856	32596	31348
3614	0	37844	32608	31337
3615	0	37856	32608	31356
3616	0	37836	32608	31380
3617	0	37824	32608	31393
3618	0	37808	32628	31400
3619	0	37800	32628	31408
3620	0	37796	32624	31408
3621	0	37772	32624	31397
3622	0	37756	32616	31400
3623	0	37768	32616	31392
3624	0	37770	32608	31392
3625	0	37784	32616	31376
3626	0	37804	32632	31352
3627	0	37784	32652	31332
3628	0	37784	32656	31328
3629	0	37792	32648	31324
3630	0	37776	32664	31296
3631	0	37760	32676	31281
3632	0	37744	32672	31264
3633	0	37700	32676	31256
3634	0	37684	32668	31261
3635	0	37644	32664	31248
3636	0	37608	32669	31244
3637	0	37584	32676	31244
3638	0	37568	32684	31252
3639	0	37556	32669	31277
3640	0	37552	32664	31272
3641	0	37580	32672	31284
3642	0	37588	32660	31278
3643	0	37628	32654	31276
3644	0	37652	32676	31268
3645	0	37708	32680	31276
3646	0	37744	32672	31280
3647	0	37768	32680	31272
3648	0	37800	32669	31268
3649	0	37800	32672	31257
3650	0	37832	32648	31265
3651	0	37812	32644	31256
3652	0	37808	32636	31240
3653	0	37796	32632	31232
3654	0	37768	32632	31216
3655	0	37776	32656	31196
3656	0	37768	32656	31168
3657	0	37768	32628	31148
3658	0	37788	32624	31124
3659	0	37804	32616	31096
3660	0	37829	32640	31072
3661	0	37840	32636	31034
3662	0	37848	32632	31020
3663	0	37864	32628	30992
3664	0	37876	32620	30960
3665	0	37900	32632	30924
3666	0	37952	32632	30892
3667	0	38032	32672	30860
3668	0	38132	32816	30808
3669	0	38560	33185	30836
3670	0	39224	33380	30624
3671	0	39516	33400	29976
3672	0	39424	33152	29280
3673	0	39240	32792	28916
3674	0	39072	32488	28972
3675	0	38800	32321	29276
3676	0	38440	32248	29756
3677	0	38036	32236	30344
3678	0	37600	32233	30972
3679	0	37208	32252	31568
3680	0	36848	32318	32056
3681	0	36544	32368	32396
3682	0	36304	32384	32596
3683	0	36184	32416	32656
3684	0	36136	32471	32544
3685	0	36168	32512	32324
3686	0	36284	32524	32024
3687	0	36432	32548	31692
3688	0	36624	32580	31360
3689	0	36832	32608	31032
3690	0	37084	32628	30744
3691	0	37292	32628	30496
3692	0	37500	32668	30304
3693	0	37696	32680	30160
3694	0	37864	32672	30100
3695	0	38008	32676	30076
3696	0	38088	32672	30088
3697	0	38160	32668	30152
3698	0	38184	32672	30208
3699	0	38164	32668	30288
3700	0	38120	32660	30364
3701	0	38088	32669	30432
3702	0	38008	32660	30489
3703	0	37904	32668	30521
3704	0	37792	32668	30552
3705	0	37700	32672	30572
3706	0	37604	32688	30568
3707	0	37540	32692	30572
3708	0	37484	32704	30584
3709	0	37448	32700	30572
3710	0	37432	32700	30565
3711	0	37404	32700	30564
3712	0	37424	32720	30558
3713	0	37466	32724	30556
3714	0	37512	32716	30568
3715	0	37544	32709	30557
3716	0	37624	32708	30556
3717	0	37672	32692	30540
3718	0	37688	32676	30513
3719	0	37744	32668	30492
3720	0	37772	32668	30476
3721	0	37796	32660	30452
3722	0	37800	32648	30432
3723	0	37796	32632	30408
3724	0	37784	32628	30388
3725	0	37752	32620	30352
3726	0	37732	32592	30332
3727	0	37712	32584	30300
3728	0	37664	32575	30288
3729	0	37624	32576	30282
3730	0	37596	32576	30284
3731	0	37564	32572	30296
3732	0	37544	32576	30300
3733	0	37532	32572	30312
3734	0	37512	32560	30352
3735	0	37484	32555	30364
3736	0	37480	32560	30389
3737	0	37460	32564	30401
3738	0	37480	32556	30416
3739	0	37472	32564	30424
3740	0	37484	32556	30440
3741	0	37464	32553	30448
3742	0	37484	32560	30456
3743	0	37472	32560	30446
3744	0	37465	32569	30432
3745	0	37468	32568	30440
3746	0	37460	32560	30436
3747	0	37456	32572	30430
3748	0	37456	32572	30436
3749	0	37468	32576	30444
3750	0	37477	32576	30432
3751	0	37468	32580	30432
3752	0	37464	32582	30448
3753	0	37464	32568	30468
3754	0	37456	32580	30465
3755	0	37440	32584	30472
3756	0	37444	32592	30481
3757	0	37428	32592	30497
3758	0	37448	32621	30484
3759	0	37456	32628	30489
3760	0	37464	32624	30501
3761	0	37464	32652	30516
3762	0	37452	32652	30520
3763	0	37440	32648	30512
3764	0	37456	32638	30512
3765	0	37472	32648	30512
3766	0	37496	32638	30512
3767	0	37508	32636	30514
3768	0	37536	32632	30505
3769	0	37544	32624	30504
3770	0	37544	32620	30516
3771	0	37576	32628	30504
3772	0	37568	32637	30504
3773	0	37560	32648	30516
3774	0	37548	32656	30508
3775	0	37536	32664	30504
3776	0	37528	32648	30496
3777	0	37524	32664	30504
3778	0	37512	32664	30512
3779	0	37512	32688	30512
3780	0	37496	32694	30504
3781	0	37480	32692	30516
3782	0	37472	32700	30540
3783	0	37480	32697	30544
3784	0	37469	32708	30536
3785	0	37512	32700	30544
3786	0	37536	32684	30556
3787	0	37560	32680	30548
3788	0	37560	32672	30552
3789	0	37568	32660	30568
3790	0	37544	32669	30552
3791	0	37524	32668	30556
3792	0	37528	32672	30545
3793	0	37496	32673	30552
3794	0	37480	32688	30552
3795	0	37456	32704	30548
3796	0	37464	32684	30544
3797	0	37444	32684	30540
3798	0	37448	32673	30540
3799	0	37476	32664	30532
3800	0	37456	32664	30524
3801	0	37464	32676	30512
3802	0	37496	32676	30512
3803	0	37516	32681	30496
3804	0	37528	32672	30488
3805	0	37552	32672	30492
3806	0	37592	32676	30480
3807	0	37608	32668	30476
3808	0	37624	32680	30456
3809	0	37620	32672	30465
3810	0	37616	32660	30464
3811	0	37592	32668	30448
3812	0	37576	32672	30444
3813	0	37544	32668	30440
3814	0	37496	32676	30440
3815	0	37472	32664	30444
3816	0	37464	32660	30452
3817	0	37464	32668	30432
3818	0	37440	32652	30436
3819	0	37416	32648	30412
3820	0	37408	32656	30401
3821	0	37408	32630	30400
3822	0	37420	32632	30392
3823	0	37412	32640	30384
3824	0	37408	32632	30393
3825	0	37416	32620	30400
3826	0	37416	32620	30396
3827	0	37416	32632	30400
3828	0	37432	32628	30404
3829	0	37412	32632	30401
3830	0	37412	32616	30424
3831	0	37404	32624	30444
3832	0	37404	32612	30448
3833	0	37368	32605	30456
3834	0	37352	32592	30466
3835	0	37344	32584	30472
3836	0	37320	32592	30468
3837	0	37324	32588	30470
3838	0	37332	32586	30453
3839	0	37328	32592	30442
3840	0	37360	32596	30441
3841	0	37368	32608	30440
3842	0	37360	32616	30436
3843	0	37392	32624	30424
3844	0	37388	32628	30412
3845	0	37416	32620	30412
3846	0	37448	32624	30408
3847	0	37476	32632	30396
3848	0	37488	32644	30412
3849	0	37488	32656	30412
3850	0	37484	32656	30428
3851	0	37488	32664	30432
3852	0	37472	32668	30456
3853	0	37452	32685	30460
3854	0	37424	32672	30472
3855	0	37424	32664	30460
3856	0	37416	32668	30460
3857	0	37413	32656	30460
3858	0	37432	32648	30452
3859	0	37444	32648	30436
3860	0	37488	32668	30417
3861	0	37544	32656	30414
3862	0	37588	32676	30396
3863	0	37640	32668	30376
3864	0	37672	32672	30360
3865	0	37700	32680	30356
3866	0	37712	32684	30361
3867	0	37712	32696	30360
3868	0	37708	32720	30360
3869	0	37688	32732	30368
3870	0	37640	32737	30372
3871	0	37584	32736	30384
3872	0	37536	32724	30376
3873	0	37472	32712	30380
3874	0	37448	32704	30376
3875	0	37396	32684	30360
3876	0	37384	32672	30356
3877	0	37364	32672	30328
3878	0	37400	32652	30336
3879	0	37424	32656	30308
3880	0	37468	32656	30297
3881	0	37520	32660	30304
3882	0	37584	32656	30304
3883	0	37616	32672	30296
3884	0	37632	32686	30308
3885	0	37652	32696	30316
3886	0	37664	32696	30332
3887	0	37664	32728	30348
3888	0	37624	32716	30376
3889	0	37604	32716	30396
3890	0	37552	32724	30408
3891	0	37508	32716	30420
3892	0	37464	32712	30454
3893	0	37420	32708	30452
3894	0	37384	32692	30458
3895	0	37360	32672	30452
3896	0	37352	32652	30464
3897	0	37336	32640	30452
3898	0	37328	32620	30454
3899	0	37344	32632	30426
3900	0	37368	32636	30408
3901	0	37404	32628	30396
3902	0	37420	32628	30368
3903	0	37464	32628	30364
3904	0	37476	32624	30360
3905	0	37484	32632	30360
3906	0	37472	32636	30357
3907	0	37464	32644	30348
3908	0	37456	32628	30352
3909	0	37460	32638	30360
3910	0	37456	32648	30364
3911	0	37464	32652	30360
3912	0	37452	32648	30352
3913	0	37440	32660	30344
3914	0	37408	32672	30344
3915	0	37412	32664	30364
3916	0	37408	32676	30368
3917	0	37412	32672	30368
3918	0	37420	32684	30368
3919	0	37404	32684	30372
3920	0	37424	32676	30381
3921	0	37440	32688	30384
3922	0	37432	32668	30390
3923	0	37440	32668	30396
3924	0	37456	32640	30404
3925	0	37444	32640	30392
3926	0	37440	32636	30388
3927	0	37416	32636	30376
3928	0	37440	32628	30376
3929	0	37428	32636	30372
3930	0	37412	32640	30360
3931	0	37412	32620	30340
3932	0	37408	32640	30332
3933	0	37432	32640	30320
3934	0	37448	32636	30312
3935	0	37472	32652	30312
3936	0	37472	32656	30304
3937	0	37484	32649	30328
3938	0	37508	32640	30328
3939	0	37492	32636	30336
3940	0	37464	32645	30348
3941	0	37472	32629	30372
3942	0	37464	32628	30376
3943	0	37456	32636	30392
3944	0	37424	32648	30400
3945	0	37440	32644	30400
3946	0	37448	32644	30400
3947	0	37468	32641	30400
3948	0	37472	32648	30392
3949	0	37487	32648	30400
3950	0	37520	32644	30392
3951	0	37520	32653	30396
3952	0	37544	32660	30380
3953	0	37552	32656	30384
3954	0	37584	32656	30392
3955	0	37584	32661	30369
3956	0	37584	32664	30380
3957	0	37576	32656	30380
3958	0	37552	32664	30385
3959	0	37528	32660	30384
3960	0	37544	32672	30372
3961	0	37552	32656	30372
3962	0	37528	32644	30380
3963	0	37512	32652	30380
3964	0	37484	32633	30380
3965	0	37460	32632	30369
3966	0	37476	32624	30368
3967	0	37480	32616	30368
3968	0	37484	32624	30376
3969	0	37472	32644	30376
3970	0	37460	32652	30376
3971	0	37464	32648	30376
3972	0	37484	32638	30384
3973	0	37476	32644	30398
3974	0	37488	32640	30400
3975	0	37496	32632	30404
3976	0	37476	32640	30420
3977	0	37484	32632	30424
3978	0	37496	32628	30412
3979	0	37508	32632	30420
3980	0	37504	32646	30420
3981	0	37528	32640	30416
3982	0	37528	32652	30397
3983	0	37536	32644	30401
3984	0	37540	32648	30400
3985	0	37552	32632	30396
3986	0	37544	32620	30388
3987	0	37520	32624	30388
3988	0	37520	32628	30388
3989	0	37528	32624	30392
3990	0	37524	32620	30376
3991	0	37520	32628	30380
3992	0	37524	32612	30392
3993	0	37500	32636	30392
3994	0	37520	32640	30408
3995	0	37536	32624	30420
3996	0	37520	32632	30424
3997	0	37504	32648	30416
3998	0	37488	32640	30420
3999	0	37468	32633	30429
4000	0	37416	32624	30424
4001	0	37384	32628	30404
4002	0	37344	32608	30404
4003	0	37312	32585	30408
4004	0	37260	32572	30385
4005	0	37244	32568	30400
4006	0	37248	32572	30384
4007	0	37252	32572	30356
4008	0	37244	32552	30368
4009	0	37280	32548	30372
4010	0	37312	32540	30376
4011	0	37360	32548	30376
4012	0	37384	32544	30372
4013	0	37416	32552	30384
4014	0	37432	32564	30400
4015	0	37412	32568	30404
4016	0	37416	32564	30416
4017	0	37384	32564	30416
4018	0	37360	32568	30416
4019	0	37320	32569	30428
4020	0	37288	32572	30452
4021	0	37248	32584	30460
4022	0	37208	32572	30472
4023	0	37176	32560	30492
4024	0	37136	32560	30488
4025	0	37117	32541	30484
4026	0	37117	32548	30480
4027	0	37132	32544	30461
4028	0	37128	32544	30428
4029	0	37144	32554	30432
4030	0	37184	32544	30416
4031	0	37212	32544	30401
4032	0	37252	32540	30388
4033	0	37296	32544	30376
4034	0	37328	32548	30365
4035	0	37384	32557	30357
4036	0	37404	32568	30360
4037	0	37432	32568	30372
4038	0	37436	32584	30368
4039	0	37432	32576	30376
4040	0	37440	32584	30368
4041	0	37444	32589	30384
4042	0	37432	32600	30394
4043	0	37432	32604	30392
4044	0	37416	32608	30405
4045	0	37424	32608	30428
4046	0	37408	32612	30424
4047	0	37396	32620	30432
4048	0	37408	32616	30432
4049	0	37396	32608	30432
4050	0	37400	32634	30424
4051	0	37420	32624	30420
4052	0	37424	32620	30412
4053	0	37432	32628	30392
4054	0	37456	32636	30372
4055	0	37484	32644	30356
4056	0	37528	32644	30336
4057	0	37529	32660	30320
4058	0	37560	32670	30296
4059	0	37592	32664	30284
4060	0	37600	32660	30268
4061	0	37620	32652	30260
4062	0	37608	32676	30248
4063	0	37588	32662	30260
4064	0	37552	32656	30256
4065	0	37540	32656	30240
4066	0	37532	32652	30236
4067	0	37500	32644	30225
4068	0	37488	32644	30224
4069	0	37468	32620	30220
4070	0	37480	32612	30229
4071	0	37504	32620	30213
4072	0	37508	32620	30213
4073	0	37520	32632	30205
4074	0	37532	32644	30200
4075	0	37536	32640	30201
4076	0	37544	32660	30204
4077	0	37544	32676	30192
4078	0	37544	32680	30188
4079	0	37556	32692	30180
4080	0	37560	32685	30192
4081	0	37560	32708	30184
4082	0	37540	32741	30173
4083	0	37544	32936	30169
4084	0	37800	33096	30193
4085	0	38104	33168	30028
4086	0	38172	33104	29552
4087	0	38004	32844	29028
4088	0	37804	32596	28748
4089	0	37696	32408	28780
4090	0	37624	32312	29000
4091	0	37528	32320	29324
4092	0	37436	32424	29676
4093	0	37336	32488	30040
4094	0	37216	32484	30396
4095	0	37112	32512	30700
4096	0	37012	32556	30980
4097	0	36928	32608	31172
4098	0	36832	32648	31304
4099	0	36792	32632	31364
4100	0	36752	32624	31356
4101	0	36716	32612	31272
4102	0	36708	32616	31132
4103	0	36744	32596	30944
4104	0	36792	32584	30737
4105	0	36852	32580	30508
4106	0	36912	32584	30276
4107	0	37008	32592	30052
4108	0	37096	32580	29872
4109	0	37192	32592	29704
4110	0	37292	32588	29584
4111	0	37392	32600	29504
4112	0	37460	32606	29436
4113	0	37532	32608	29408
4114	0	37580	32605	29428
4115	0	37588	32624	29480
4116	0	37584	32624	29556
4117	0	37588	32644	29652
4118	0	37568	32648	29756
4119	0	37516	32649	29880
4120	0	37448	32656	29996
4121	0	37348	32648	30120
4122	0	37280	32644	30240
4123	0	37200	32644	30324
4124	0	37136	32636	30384
4125	0	37084	32636	30444
4126	0	37044	32624	30476
4127	0	37008	32628	30480
4128	0	37000	32640	30457
4129	0	37000	32640	30430
4130	0	37032	32644	30376
4131	0	37092	32660	30308
4132	0	37148	32648	30252
4133	0	37224	32657	30192
4134	0	37276	32652	30124
4135	0	37344	32652	30068
4136	0	37388	32644	30032
4137	0	37432	32628	30000
4138	0	37456	32632	29972
4139	0	37464	32628	29960
4140	0	37480	32618	29956
4141	0	37476	32632	29960
4142	0	37445	32648	29961
4143	0	37416	32640	30000
4144	0	37392	32644	30032
4145	0	37344	32660	30056
4146	0	37312	32644	30116
4147	0	37284	32628	30156
4148	0	37244	32616	30188
4149	0	37232	32608	30228
4150	0	37240	32612	30244
4151	0	37232	32620	30268
4152	0	37208	32640	30268
4153	0	37228	32648	30260
4154	0	37240	32636	30268
4155	0	37240	32648	30244
4156	0	37272	32652	30236
4157	0	37296	32648	30216
4158	0	37316	32656	30180
4159	0	37364	32654	30160
4160	0	37388	32640	30152
4161	0	37388	32642	30128
4162	0	37392	32644	30108
4163	0	37400	32636	30112
4164	0	37400	32620	30104
4165	0	37384	32628	30108
4166	0	37373	32632	30104
4167	0	37356	32628	30120
4168	0	37360	32624	30136
4169	0	37328	32636	30144
4170	0	37296	32624	30164
4171	0	37280	32628	30176
4172	0	37244	32641	30184
4173	0	37264	32648	30196
4174	0	37236	32652	30204
4175	0	37240	32657	30192
4176	0	37256	32662	30196
4177	0	37248	32648	30196
4178	0	37268	32668	30184
4179	0	37296	32669	30164
4180	0	37312	32664	30152
4181	0	37328	32668	30136
4182	0	37344	32669	30112
4183	0	37324	32665	30096
4184	0	37340	32660	30072
4185	0	37328	32672	30036
4186	0	37333	32668	30005
4187	0	37336	32654	29988
4188	0	37344	32636	29980
4189	0	37368	32632	29977
4190	0	37376	32624	29976
4191	0	37376	32620	29972
4192	0	37380	32620	29972
4193	0	37400	32616	29988
4194	0	37400	32632	30012
4195	0	37400	32624	30040
4196	0	37404	32624	30062
4197	0	37424	32624	30084
4198	0	37424	32624	30100
4199	0	37420	32616	30120
4200	0	37376	32616	30112
4201	0	37360	32616	30118
4202	0	37352	32616	30124
4203	0	37352	32628	30112
4204	0	37360	32632	30112
4205	0	37352	32616	30100
4206	0	37368	32616	30088
4207	0	37380	32609	30072
4208	0	37392	32616	30056
4209	0	37404	32620	30049
4210	0	37392	32616	30048
4211	0	37364	32616	30057
4212	0	37384	32604	30052
4213	0	37400	32604	30060
4214	0	37372	32604	30064
4215	0	37352	32620	30068
4216	0	37344	32596	30088
4217	0	37340	32608	30108
4218	0	37336	32608	30108
4219	0	37336	32601	30136
4220	0	37332	32592	30148
4221	0	37344	32600	30144
4222	0	37340	32596	30172
4223	0	37336	32604	30168
4224	0	37368	32584	30172
4225	0	37360	32576	30168
4226	0	37368	32580	30160
4227	0	37376	32584	30152
4228	0	37408	32592	30144
4229	0	37448	32576	30146
4230	0	37448	32576	30140
4231	0	37456	32580	30125
4232	0	37440	32592	30120
4233	0	37460	32592	30132
4234	0	37456	32592	30120
4235	0	37440	32608	30128
4236	0	37432	32596	30120
4237	0	37440	32593	30136
4238	0	37436	32576	30124
4239	0	37424	32584	30128
4240	0	37416	32592	30132
4241	0	37384	32600	30144
4242	0	37360	32608	30148
4243	0	37312	32604	30164
4244	0	37305	32604	30172
4245	0	37300	32601	30177
4246	0	37276	32592	30200
4247	0	37248	32588	30228
4248	0	37228	32572	30240
4249	0	37221	32552	30244
4250	0	37236	32548	30256
4251	0	37220	32556	30264
4252	0	37216	32561	30240
4253	0	37216	32560	30237
4254	0	37228	32552	30240
4255	0	37224	32560	30236
4256	0	37236	32564	30228
4257	0	37232	32572	30208
4258	0	37252	32573	30188
4259	0	37268	32572	30184
4260	0	37272	32564	30169
4261	0	37272	32568	30164
4262	0	37272	32560	30154
4263	0	37288	32568	30148
4264	0	37276	32548	30152
4265	0	37296	32548	30152
4266	0	37292	32536	30160
4267	0	37272	32552	30152
4268	0	37280	32552	30160
4269	0	37292	32545	30172
4270	0	37312	32560	30176
4271	0	37316	32568	30169
4272	0	37328	32576	30148
4273	0	37328	32568	30164
4274	0	37328	32580	30148
4275	0	37340	32584	30129
4276	0	37332	32584	30128
4277	0	37328	32588	30120
4278	0	37324	32601	30112
4279	0	37336	32600	30112
4280	0	37340	32600	30108
4281	0	37324	32596	30112
4282	0	37332	32586	30112
4283	0	37348	32584	30112
4284	0	37372	32584	30121
4285	0	37380	32584	30128
4286	0	37400	32604	30113
4287	0	37404	32601	30124
4288	0	37424	32600	30140
4289	0	37460	32593	30140
4290	0	37472	32608	30136
4291	0	37480	32616	30132
4292	0	37480	32604	30136
4293	0	37496	32604	30156
4294	0	37492	32608	30144
4295	0	37464	32616	30156
4296	0	37444	32612	30168
4297	0	37421	32604	30164
4298	0	37396	32600	30176
4299	0	37360	32596	30184
4300	0	37360	32581	30164
4301	0	37352	32584	30160
4302	0	37336	32580	30168
4303	0	37324	32572	30148
4304	0	37328	32581	30136
4305	0	37348	32584	30132
4306	0	37360	32588	30124
4307	0	37376	32580	30124
4308	0	37388	32588	30124
4309	0	37400	32584	30140
4310	0	37416	32604	30137
4311	0	37428	32600	30148
4312	0	37424	32604	30152
4313	0	37408	32616	30148
4314	0	37408	32600	30165
4315	0	37412	32604	30166
4316	0	37396	32596	30184
4317	0	37380	32600	30192
4318	0	37368	32608	30208
4319	0	37376	32592	30212
4320	0	37336	32616	30220
4321	0	37320	32596	30220
4322	0	37300	32612	30236
4323	0	37300	32601	30244
4324	0	37272	32592	30261
4325	0	37252	32604	30268
4326	0	37244	32600	30264
4327	0	37216	32592	30276
4328	0	37224	32584	30284
4329	0	37240	32584	30280
4330	0	37216	32588	30264
4331	0	37220	32588	30272
4332	0	37232	32588	30264
4333	0	37256	32586	30260
4334	0	37248	32588	30240
4335	0	37244	32584	30232
4336	0	37244	32576	30221
4337	0	37252	32564	30228
4338	0	37264	32568	30233
4339	0	37264	32565	30220
4340	0	37272	32560	30228
4341	0	37264	32564	30224
4342	0	37272	32572	30232
4343	0	37276	32568	30236
4344	0	37272	32584	30233
4345	0	37292	32586	30236
4346	0	37280	32584	30261
4347	0	37284	32588	30288
4348	0	37292	32592	30304
4349	0	37284	32608	30312
4350	0	37248	32612	30320
4351	0	37240	32612	30320
4352	0	37236	32596	30340
4353	0	37244	32584	30356
4354	0	37228	32572	30356
4355	0	37256	32576	30360
4356	0	37272	32584	30352
4357	0	37292	32596	30328
4358	0	37296	32610	30336
4359	0	37320	32612	30336
4360	0	37340	32604	30328
4361	0	37344	32600	30304
4362	0	37360	32608	30302
4363	0	37364	32612	30280
4364	0	37380	32620	30260
4365	0	37384	32624	30248
4366	0	37400	32620	30248
4367	0	37408	32612	30240
4368	0	37408	32608	30244
4369	0	37404	32608	30236
4370	0	37408	32608	30256
4371	0	37424	32614	30264
4372	0	37408	32612	30280
4373	0	37416	32620	30272
4374	0	37396	32632	30296
4375	0	37392	32652	30300
4376	0	37424	32652	30304
4377	0	37432	32648	30310
4378	0	37440	32668	30308
4379	0	37429	32668	30312
4380	0	37440	32657	30308
4381	0	37440	32656	30316
4382	0	37436	32652	30296
4383	0	37448	32640	30276
4384	0	37476	32665	30264
4385	0	37480	32664	30244
4386	0	37468	32664	30237
4387	0	37476	32660	30220
4388	0	37464	32644	30208
4389	0	37488	32648	30192
4390	0	37496	32648	30186
4391	0	37512	32648	30188
4392	0	37508	32648	30176
4393	0	37520	32644	30196
4394	0	37521	32650	30200
4395	0	37512	32634	30204
4396	0	37500	32644	30208
4397	0	37484	32648	30228
4398	0	37480	32648	30240
4399	0	37480	32644	30240
4400	0	37464	32648	30244
4401	0	37440	32660	30240
4402	0	37432	32652	30244
4403	0	37424	32644	30260
4404	0	37432	32644	30260
4405	0	37432	32652	30264
4406	0	37408	32644	30260
4407	0	37396	32640	30252
4408	0	37400	32628	30260
4409	0	37412	32625	30253
4410	0	37424	32652	30249
4411	0	37424	32648	30244
4412	0	37424	32652	30249
4413	0	37428	32648	30244
4414	0	37444	32648	30232
4415	0	37464	32633	30236
4416	0	37440	32640	30232
4417	0	37456	32652	30240
4418	0	37480	32648	30240
4419	0	37484	32652	30240
4420	0	37480	32644	30241
4421	0	37464	32648	30256
4422	0	37448	32648	30268
4423	0	37452	32644	30266
4424	0	37424	32632	30252
4425	0	37384	32632	30260
4426	0	37376	32636	30260
4427	0	37380	32636	30256
4428	0	37344	32640	30240
4429	0	37356	32632	30240
4430	0	37352	32636	30240
4431	0	37356	32644	30238
4432	0	37352	32640	30236
4433	0	37368	32648	30216
4434	0	37360	32632	30216
4435	0	37356	32632	30220
4436	0	37372	32612	30220
4437	0	37364	32600	30221
4438	0	37356	32598	30212
4439	0	37336	32596	30200
4440	0	37336	32588	30200
4441	0	37344	32592	30218
4442	0	37336	32592	30216
4443	0	37336	32590	30212
4444	0	37344	32572	30232
4445	0	37332	32568	30230
4446	0	37336	32577	30228
4447	0	37344	32576	30236
4448	0	37360	32576	30240
4449	0	37368	32576	30241
4450	0	37352	32580	30260
4451	0	37376	32565	30276
4452	0	37364	32580	30272
4453	0	37376	32580	30276
4454	0	37360	32592	30272
4455	0	37360	32600	30292
4456	0	37364	32592	30308
4457	0	37361	32600	30296
4458	0	37360	32604	30292
4459	0	37352	32593	30304
4460	0	37352	32608	30300
4461	0	37360	32600	30304
4462	0	37392	32604	30308
4463	0	37360	32608	30304
4464	0	37368	32604	30300
4465	0	37376	32604	30300
4466	0	37368	32609	30302
4467	0	37388	32620	30296
4468	0	37376	32616	30300
