# OpenSignals Text File Format
# {"00:07:80:4D:2E:5B":{"sensor":["gACCx","gACCy","gACCz"],"device name":"00:07:80:4D:2E:5B","column":["nSeq","DI","gACCx","gACCy","gACCz"],"sync interval":2,"time":"05:27:55","comments":"","keywords":"","device connection":"BTH00:07:80:4D:2E:5B","channels":[1,2,3],"date":"2024-10-17","mode":0,"digital IO":[0,1],"firmware version":775,"device":"biosignalsplux","position":0,"sampling rate":1000,"label":["gACCx","gACCy","gACCz"],"resolution":[16,16,16],"special":[{},{},{}],"sleeve color":["UNKNOWN","UNKNOWN","UNKNOWN"]}}
# EndOfHeader
0	0	38004	33012	32744
1	0	38140	33028	32764
2	0	38272	33028	32804
3	0	38348	33056	32808
4	0	38440	33048	32852
5	0	38488	33056	32893
6	0	38496	33056	32928
7	0	38480	33032	32956
8	0	38456	33052	32977
9	0	38448	33040	32997
10	0	38424	33040	32996
11	0	38392	33020	33004
12	0	38376	33008	33000
13	0	38356	32997	32996
14	0	38360	32980	32980
15	0	38344	32964	32976
16	0	38336	32940	32976
17	0	38320	32936	32965
18	0	38316	32928	32960
19	0	38312	32928	32960
20	0	38304	32924	32936
21	0	38304	32912	32900
22	0	38296	32900	32872
23	0	38296	32894	32860
24	0	38272	32892	32860
25	0	38264	32896	32861
26	0	38280	32881	32864
27	0	38240	32884	32872
28	0	38196	32880	32880
29	0	38148	32888	32904
30	0	38120	32895	32912
31	0	38096	32900	32912
32	0	38064	32901	32904
33	0	38032	32892	32884
34	0	37992	32892	32856
35	0	37984	32893	32848
36	0	37993	32904	32817
37	0	37980	32917	32796
38	0	37964	32928	32776
39	0	37968	32960	32728
40	0	37976	32972	32708
41	0	38008	33000	32680
42	0	38064	33016	32696
43	0	38112	33052	32680
44	0	38152	33064	32680
45	0	38196	33088	32664
46	0	38520	33152	32464
47	0	39724	33344	32216
48	0	40104	33324	32285
49	0	39568	33256	32444
50	0	38752	33236	32580
51	0	38088	33212	32712
52	0	37712	33192	32804
53	0	37588	33148	32865
54	0	37584	33096	32912
55	0	37592	33032	32904
56	0	37624	33028	32900
57	0	37652	33016	32912
58	0	37649	32980	32893
59	0	37608	32956	32869
60	0	37544	32892	32844
61	0	37524	32856	32832
62	0	37576	32880	32848
63	0	37676	32896	32840
64	0	37740	32960	32824
65	0	37792	32945	32820
66	0	37800	32992	32848
67	0	37768	32964	32913
68	0	37684	32976	32984
69	0	37596	32956	33056
70	0	37512	32936	33116
71	0	37464	32925	33168
72	0	37432	32908	33208
73	0	37412	32912	33216
74	0	37448	32896	33228
75	0	37464	32876	33244
76	0	37472	32856	33228
77	0	37520	32902	33184
78	0	37568	32865	33161
79	0	37584	32941	33092
80	0	37652	32976	33020
81	0	37744	32988	32948
82	0	37800	32992	32921
83	0	37816	32952	32944
84	0	37816	32953	32992
85	0	37824	32988	33021
86	0	37824	32932	33072
87	0	37792	32908	33108
88	0	37784	32908	33152
89	0	37792	32888	33216
90	0	37844	32920	33244
91	0	37896	32968	33237
92	0	37936	32986	33233
93	0	37980	33004	33216
94	0	37976	33008	33216
95	0	37988	33073	33204
96	0	38020	33124	33214
97	0	38000	33136	33217
98	0	37952	33088	33252
99	0	37928	33056	33276
100	0	37940	33024	33292
101	0	37960	33024	33292
102	0	38012	33040	33268
103	0	38048	33048	33260
104	0	38104	33068	33216
105	0	38096	33096	33116
106	0	38072	33112	33088
107	0	38056	33128	33104
108	0	38136	33164	33128
109	0	38188	33168	33152
110	0	38216	33176	33176
111	0	38236	33193	33192
112	0	38268	33196	33216
113	0	38240	33212	33200
114	0	38192	33232	33224
115	0	38160	33244	33244
116	0	38176	33240	33248
117	0	38224	33224	33213
118	0	38280	33248	33208
119	0	38284	33240	33189
120	0	38284	33236	33168
121	0	38308	33240	33156
122	0	38268	33252	33160
123	0	38248	33228	33120
124	0	38240	33224	33104
125	0	38256	33256	33093
126	0	38240	33232	33084
127	0	38244	33218	33064
128	0	38272	33216	33032
129	0	38288	33237	33020
130	0	38280	33216	32992
131	0	38292	33212	32988
132	0	38316	33242	32988
133	0	38324	33256	32984
134	0	38352	33244	32985
135	0	38364	33256	32976
136	0	38372	33256	32964
137	0	38364	33256	32980
138	0	38364	33276	32992
139	0	38380	33280	33000
140	0	38400	33296	32965
141	0	38384	33276	32936
142	0	38336	33300	32900
143	0	38324	33288	32864
144	0	38264	33292	32858
145	0	38228	33284	32840
146	0	38200	33264	32868
147	0	38200	33280	32904
148	0	38204	33304	32920
149	0	38216	33296	32932
150	0	38244	33301	32924
151	0	38260	33300	32948
152	0	38248	33293	32964
153	0	38252	33300	32972
154	0	38256	33316	32960
155	0	38248	33296	32944
156	0	38232	33288	32928
157	0	38232	33280	32916
158	0	38232	33300	32920
159	0	38248	33300	32912
160	0	38272	33312	32904
161	0	38288	33320	32900
162	0	38272	33317	32881
163	0	38284	33310	32892
164	0	38296	33324	32884
165	0	38300	33340	32872
166	0	38296	33341	32848
167	0	38284	33320	32844
168	0	38268	33320	32849
169	0	38264	33312	32837
170	0	38272	33325	32844
171	0	38264	33324	32849
172	0	38272	33320	32856
173	0	38256	33320	32848
174	0	38232	33316	32844
175	0	38232	33316	32848
176	0	38228	33300	32856
177	0	38188	33300	32868
178	0	38144	33292	32894
179	0	38136	33284	32892
180	0	38104	33276	32905
181	0	38092	33264	32904
182	0	38060	33246	32908
183	0	38044	33216	32924
184	0	38024	33216	32928
185	0	37992	33216	32933
186	0	37960	33212	32945
187	0	37976	33205	32952
188	0	37968	33184	32936
189	0	37948	33160	32956
190	0	37944	33160	32964
191	0	37920	33185	32945
192	0	37912	33172	32936
193	0	37900	33172	32948
194	0	37912	33172	32969
195	0	37872	33160	32977
196	0	37876	33164	32998
197	0	37888	33152	33008
198	0	37872	33160	33028
199	0	37864	33156	33028
200	0	37860	33144	33028
201	0	37856	33140	33026
202	0	37840	33145	33004
203	0	37848	33148	33000
204	0	37844	33152	32992
205	0	37824	33152	32968
206	0	37828	33140	32941
207	0	37860	33145	32916
208	0	37868	33164	32876
209	0	37864	33165	32860
210	0	37868	33184	32832
211	0	37868	33196	32825
212	0	37880	33208	32800
213	0	37896	33212	32792
214	0	37916	33196	32788
215	0	37900	33192	32760
216	0	37888	33204	32720
217	0	37853	33204	32700
218	0	37844	33192	32688
219	0	37832	33192	32704
220	0	37840	33188	32704
221	0	37825	33196	32680
222	0	37808	33192	32672
223	0	37816	33172	32680
224	0	37824	33184	32688
225	0	37836	33184	32688
226	0	37844	33196	32692
227	0	37832	33184	32708
228	0	37840	33196	32716
229	0	37840	33208	32704
230	0	37824	33212	32696
231	0	37824	33200	32716
232	0	37816	33204	32712
233	0	37824	33228	32712
234	0	37824	33233	32696
235	0	37880	33244	32668
236	0	37940	33240	32645
237	0	37976	33262	32628
238	0	38000	33260	32608
239	0	38024	33252	32612
240	0	38032	33268	32632
241	0	38060	33228	32640
242	0	38096	33228	32688
243	0	38096	33242	32712
244	0	38064	33216	32748
245	0	38052	33204	32804
246	0	38024	33192	32864
247	0	37980	33160	32956
248	0	37960	33149	33020
249	0	37936	33132	33084
250	0	37920	33128	33120
251	0	37892	33148	33096
252	0	37880	33160	33060
253	0	37912	33150	33017
254	0	37960	33124	32992
255	0	37980	33124	33000
256	0	38000	33148	32988
257	0	37992	33136	32996
258	0	38012	33136	33004
259	0	38032	33140	32992
260	0	38044	33108	32984
261	0	38056	33100	33004
262	0	38064	33108	33016
263	0	38072	33096	33036
264	0	38032	33093	33060
265	0	38008	33092	33096
266	0	37988	33084	33116
267	0	37981	33080	33137
268	0	37980	33068	33148
269	0	37976	33076	33156
270	0	37984	33072	33140
271	0	37952	33060	33140
272	0	37948	33048	33127
273	0	37920	33056	33104
274	0	37896	33056	33096
275	0	37916	33040	33076
276	0	37916	33052	33048
277	0	37924	33048	33024
278	0	37924	33040	33012
279	0	37920	33052	32973
280	0	37936	33052	32968
281	0	37936	33068	32952
282	0	37952	33076	32960
283	0	37944	33076	32952
284	0	37952	33072	32948
285	0	37960	33084	32932
286	0	37952	33088	32936
287	0	37944	33092	32928
288	0	37944	33104	32924
289	0	37932	33104	32924
290	0	37912	33108	32940
291	0	37912	33112	32936
292	0	37896	33100	32936
293	0	37888	33104	32936
294	0	37888	33124	32924
295	0	37892	33124	32933
296	0	37888	33128	32928
297	0	37880	33140	32936
298	0	37880	33120	32940
299	0	37860	33132	32944
300	0	37832	33136	32936
301	0	37800	33140	32940
302	0	37800	33144	32942
303	0	37800	33160	32944
304	0	37824	33164	32944
305	0	37816	33184	32928
306	0	37804	33184	32912
307	0	37792	33192	32916
308	0	37808	33192	32916
309	0	37792	33184	32916
310	0	37768	33192	32928
311	0	37756	33200	32928
312	0	37756	33204	32936
313	0	37788	33212	32940
314	0	37792	33204	32948
315	0	37808	33204	32944
316	0	37800	33200	32948
317	0	37788	33204	32940
318	0	37800	33216	32940
319	0	37808	33212	32956
320	0	37808	33216	32952
321	0	37808	33216	32948
322	0	37816	33204	32933
323	0	37824	33212	32940
324	0	37824	33240	32944
325	0	37864	33244	32932
326	0	37884	33248	32936
327	0	37876	33260	32924
328	0	37844	33252	32948
329	0	37844	33248	32948
330	0	37832	33273	32952
331	0	37832	33256	32976
332	0	37836	33279	32972
333	0	37840	33296	32980
334	0	37856	33294	32976
335	0	37880	33300	32980
336	0	37872	33288	32988
337	0	37876	33285	32984
338	0	37864	33276	32997
339	0	37872	33295	32992
340	0	37900	33304	33012
341	0	37900	33304	33008
342	0	37912	33300	33005
343	0	37944	33300	33020
344	0	37936	33304	33017
345	0	37952	33300	33025
346	0	37968	33312	33028
347	0	38004	33304	33036
348	0	38016	33288	33052
349	0	38032	33288	33044
350	0	38044	33304	33036
351	0	38072	33304	33054
352	0	38072	33304	33056
353	0	38064	33332	33052
354	0	38056	33320	33060
355	0	38064	33328	33068
356	0	38072	33328	33068
357	0	38064	33329	33072
358	0	38060	33320	33060
359	0	38068	33328	33052
360	0	38064	33328	33056
361	0	38056	33317	33052
362	0	38052	33312	33060
363	0	38044	33324	33048
364	0	38048	33324	33036
365	0	38040	33320	33032
366	0	38024	33324	33040
367	0	38012	33324	33032
368	0	37996	33308	33020
369	0	38000	33300	33016
370	0	37984	33300	33020
371	0	37960	33288	33028
372	0	37960	33285	33017
373	0	37960	33276	33016
374	0	37956	33284	33000
375	0	37952	33276	33000
376	0	37968	33264	33008
377	0	37968	33268	33008
378	0	37976	33260	33000
379	0	37969	33256	33000
380	0	37968	33252	32993
381	0	37964	33268	32997
382	0	37968	33256	33000
383	0	37976	33256	32992
384	0	37980	33253	32976
385	0	37964	33236	32964
386	0	37956	33236	32956
387	0	37928	33232	32960
388	0	37916	33232	32980
389	0	37928	33216	32996
390	0	37944	33212	32988
391	0	37956	33208	33004
392	0	37940	33212	33000
393	0	37928	33224	32992
394	0	37920	33216	33012
395	0	37928	33208	33008
396	0	37936	33212	33016
397	0	37928	33208	33004
398	0	37928	33212	33000
399	0	37920	33216	32992
400	0	37912	33236	32992
401	0	37924	33221	32976
402	0	37936	33228	32988
403	0	37932	33221	32992
404	0	37928	33228	33000
405	0	37916	33236	32996
406	0	37904	33232	32996
407	0	37912	33240	32988
408	0	37912	33240	32984
409	0	37896	33228	32980
410	0	37896	33220	32976
411	0	37896	33224	32964
412	0	37920	33208	32964
413	0	37896	33216	32968
414	0	37900	33208	32976
415	0	37916	33204	32996
416	0	37912	33196	32992
417	0	37904	33198	33000
418	0	37896	33200	33008
419	0	37908	33216	32996
420	0	37916	33196	33008
421	0	37904	33192	33004
422	0	37896	33196	32992
423	0	37880	33196	32996
424	0	37892	33208	32988
425	0	37904	33196	33000
426	0	37908	33196	33000
427	0	37904	33192	33008
428	0	37880	33200	33024
429	0	37872	33196	33032
430	0	37876	33200	33032
431	0	37888	33188	33016
432	0	37888	33188	33000
433	0	37908	33180	33008
434	0	37916	33176	32992
435	0	37928	33164	32988
436	0	37932	33152	32992
437	0	37949	33156	32984
438	0	37944	33148	32988
439	0	37952	33156	32996
440	0	37968	33156	32996
441	0	37976	33144	33004
442	0	37952	33156	32996
443	0	37940	33140	32988
444	0	37960	33124	32978
445	0	38004	33124	32980
446	0	38052	33136	32960
447	0	38048	33136	32921
448	0	38040	33124	32912
449	0	38008	33136	32908
450	0	37996	33128	32932
451	0	38016	33128	32932
452	0	38012	33124	32948
453	0	38000	33112	32984
454	0	38049	33096	33092
455	0	38108	33113	33120
456	0	38148	33136	33056
457	0	38144	33144	32992
458	0	38140	33132	32976
459	0	38080	33124	32964
460	0	38016	33128	32960
461	0	37936	33141	32912
462	0	37888	33124	32924
463	0	37872	33108	32900
464	0	37848	33096	32900
465	0	37808	33072	32904
466	0	37808	33052	32940
467	0	37824	33052	32968
468	0	37808	33064	32982
469	0	37816	33072	32968
470	0	37816	33072	32972
471	0	37840	33064	32988
472	0	37832	33044	33000
473	0	37840	33052	33032
474	0	37864	33072	33036
475	0	37896	33076	33037
476	0	37912	33088	33024
477	0	37956	33092	33008
478	0	37972	33092	32992
479	0	37992	33100	32976
480	0	37973	33120	32960
481	0	37988	33116	32964
482	0	37996	33112	32980
483	0	38000	33104	32968
484	0	38000	33100	32984
485	0	37984	33112	32972
486	0	37992	33100	32992
487	0	37980	33102	33004
488	0	37956	33096	33001
489	0	37960	33104	33012
490	0	37972	33088	33004
491	0	37976	33100	33000
492	0	37968	33080	33004
493	0	37988	33080	33008
494	0	37964	33072	33024
495	0	37944	33088	33013
496	0	37944	33104	33008
497	0	37932	33096	33004
498	0	37932	33113	32968
499	0	37928	33120	32932
500	0	37912	33108	32920
501	0	37904	33093	32928
502	0	37920	33096	32916
503	0	37912	33104	32895
504	0	37900	33108	32884
505	0	37912	33100	32876
506	0	37908	33092	32872
507	0	37920	33104	32884
508	0	37928	33105	32872
509	0	37920	33080	32888
510	0	37896	33084	32892
511	0	37904	33088	32892
512	0	37896	33080	32920
513	0	37912	33076	32932
514	0	37928	33064	32956
515	0	37920	33081	32960
516	0	37912	33085	32957
517	0	37916	33076	32960
518	0	37912	33088	32944
519	0	37904	33093	32912
520	0	37916	33104	32888
521	0	37912	33096	32872
522	0	37912	33096	32856
523	0	37916	33108	32844
524	0	37936	33100	32844
525	0	37960	33104	32864
526	0	37960	33104	32872
527	0	37932	33120	32860
528	0	37936	33124	32876
529	0	37928	33116	32892
530	0	37920	33104	32924
531	0	37936	33100	32928
532	0	37924	33100	32944
533	0	37920	33084	32965
534	0	37896	33088	32984
535	0	37904	33084	33004
536	0	37880	33064	33032
537	0	37856	33064	33040
538	0	37836	33076	33017
539	0	37840	33060	33036
540	0	37848	33068	33016
541	0	37836	33068	33024
542	0	37824	33072	32992
543	0	37832	33064	33008
544	0	37836	33056	33016
545	0	37840	33084	33000
546	0	37832	33080	33032
547	0	37824	33104	33032
548	0	37824	33092	33020
549	0	37824	33056	33036
550	0	37832	33040	33016
551	0	37844	33045	33012
552	0	37844	33064	33000
553	0	37836	33072	32988
554	0	37832	33072	32980
555	0	37844	33092	32976
556	0	37864	33068	32976
557	0	37864	33064	32993
558	0	37856	33096	32996
559	0	37872	33096	33004
560	0	37892	33088	33028
561	0	37920	33076	33044
562	0	37924	33108	33040
563	0	37920	33120	33056
564	0	37924	33108	33072
565	0	37924	33108	33084
566	0	37936	33124	33080
567	0	37936	33124	33090
568	0	37932	33144	33064
569	0	37944	33133	33065
570	0	37936	33152	33045
571	0	37936	33141	33032
572	0	37952	33160	33032
573	0	37952	33184	33020
574	0	37960	33168	33032
575	0	37976	33184	33040
576	0	37952	33188	33021
577	0	37952	33184	33028
578	0	37952	33200	33040
579	0	37956	33208	33010
580	0	37952	33184	33008
581	0	37936	33188	33032
582	0	37928	33200	33036
583	0	37928	33208	33040
584	0	37924	33210	33036
585	0	37944	33220	33040
586	0	37936	33232	33022
587	0	37952	33232	32988
588	0	37924	33224	33004
589	0	37896	33220	33008
590	0	37904	33216	32996
591	0	37892	33216	32965
592	0	37900	33232	32948
593	0	37900	33236	32932
594	0	37912	33232	32924
595	0	37936	33236	32902
596	0	37936	33245	32876
597	0	37940	33248	32840
598	0	37960	33248	32808
599	0	37964	33244	32796
600	0	37936	33241	32808
601	0	37928	33232	32828
602	0	37944	33252	32844
603	0	37944	33268	32841
604	0	37944	33232	32876
605	0	37920	33252	32904
606	0	37896	33248	32904
607	0	37884	33248	32912
608	0	37880	33248	32920
609	0	37876	33229	32936
610	0	37900	33228	32940
611	0	37908	33216	32940
612	0	37896	33228	32940
613	0	37904	33232	32936
614	0	37896	33213	32949
615	0	37888	33208	32960
616	0	37908	33188	32960
617	0	37920	33184	32980
618	0	37896	33200	32968
619	0	37888	33196	32997
620	0	37900	33184	33000
621	0	37896	33184	32977
622	0	37884	33164	32972
623	0	37896	33160	32968
624	0	37880	33160	32952
625	0	37888	33150	32948
626	0	37920	33120	32960
627	0	37920	33128	32977
628	0	37916	33136	32968
629	0	37920	33140	32988
630	0	37940	33148	32992
631	0	37944	33152	32989
632	0	37920	33145	33000
633	0	37944	33172	32988
634	0	37928	33164	32984
635	0	37924	33180	32976
636	0	37928	33184	32972
637	0	37928	33184	32984
638	0	37936	33180	33004
639	0	37936	33176	33028
640	0	37932	33181	33048
641	0	37937	33168	33060
642	0	37920	33152	33082
643	0	37928	33176	33088
644	0	37924	33182	33100
645	0	37904	33198	33076
646	0	37920	33196	33064
647	0	37924	33184	33064
648	0	37924	33176	33076
649	0	37912	33182	33060
650	0	37916	33160	33056
651	0	37928	33144	33056
652	0	37892	33152	33060
653	0	37868	33160	33068
654	0	37856	33156	33084
655	0	37872	33156	33096
656	0	37856	33164	33112
657	0	37840	33144	33120
658	0	37824	33140	33124
659	0	37832	33144	33108
660	0	37816	33132	33084
661	0	37816	33148	33060
662	0	37824	33160	33056
663	0	37824	33156	33048
664	0	37816	33176	33056
665	0	37840	33164	33052
666	0	37828	33136	33053
667	0	37800	33140	33032
668	0	37824	33160	33036
669	0	37840	33152	33052
670	0	37832	33120	33048
671	0	37816	33112	33040
672	0	37848	33116	33048
673	0	37864	33120	33056
674	0	37872	33144	33036
675	0	37876	33177	33032
676	0	37898	33180	33036
677	0	37912	33172	33001
678	0	37920	33176	32976
679	0	37928	33176	32952
680	0	37936	33152	32936
681	0	37968	33136	32892
682	0	37980	33152	32852
683	0	37960	33180	32834
684	0	37936	33188	32816
685	0	37916	33188	32820
686	0	37916	33168	32832
687	0	37920	33148	32868
688	0	37932	33156	32892
689	0	37928	33172	32928
690	0	37940	33186	32956
691	0	37968	33201	33004
692	0	37956	33214	33040
693	0	37976	33200	33064
694	0	37992	33196	33068
695	0	37972	33152	33081
696	0	37936	33116	33092
697	0	37928	33135	33104
698	0	37912	33132	33100
699	0	37888	33120	33120
700	0	37916	33108	33140
701	0	37908	33112	33153
702	0	37904	33112	33173
703	0	37892	33088	33216
704	0	37892	33100	33224
705	0	37904	33112	33256
706	0	37916	33104	33260
707	0	37920	33092	33252
708	0	37952	33132	33274
709	0	37940	33124	33312
710	0	37944	33140	33372
711	0	37960	33136	33364
712	0	37936	33064	33301
713	0	37948	33020	33284
714	0	37964	33040	33284
715	0	37916	32984	33236
716	0	37920	33036	33225
717	0	37936	33060	33248
718	0	37964	33048	33260
719	0	37980	33096	33252
720	0	37984	33104	33308
721	0	37972	33056	33294
722	0	37952	33032	33208
723	0	37952	33024	33208
724	0	37932	33068	33220
725	0	37932	33120	33273
726	0	37932	33097	33224
727	0	37944	33132	33260
728	0	37944	33100	33288
729	0	37920	33089	33286
730	0	37880	32956	33184
731	0	37796	32856	33076
732	0	37768	32853	32972
733	0	37764	32976	33036
734	0	37800	33104	33136
735	0	37856	33084	33136
736	0	37856	33085	33173
737	0	37800	33076	33208
738	0	37824	33132	33300
739	0	37852	33080	33472
740	0	37828	33032	33848
741	0	37928	33044	34192
742	0	38080	33080	34184
743	0	38128	32957	33944
744	0	38032	32940	33632
745	0	37916	32884	33328
746	0	37800	32884	33033
747	0	37808	32954	32924
748	0	37768	33005	32857
749	0	37748	32972	32689
750	0	37728	33004	32540
751	0	37728	33036	32408
752	0	37760	33052	32365
753	0	37764	33080	32300
754	0	37792	33104	32260
755	0	37832	33152	32348
756	0	37816	33176	32424
757	0	37808	33148	32468
758	0	37796	33117	32484
759	0	37800	33144	32584
760	0	37776	33180	32780
761	0	37792	33148	32956
762	0	37808	33136	33076
763	0	37876	33152	33202
764	0	37910	33180	33308
765	0	37868	33068	33376
766	0	37872	33048	33421
767	0	37932	33124	33636
768	0	37928	33124	33736
769	0	37960	33128	33704
770	0	38024	33080	33492
771	0	38064	33013	33384
772	0	38180	33008	33312
773	0	38180	32996	33152
774	0	38144	33000	32984
775	0	38016	33052	32892
776	0	37960	33120	32804
777	0	37936	33108	32724
778	0	37853	33113	32608
779	0	37834	33084	32560
780	0	37832	33088	32508
781	0	37808	33071	32472
782	0	37833	33068	32472
783	0	37848	33038	32488
784	0	37824	33048	32528
785	0	37792	33056	32596
786	0	37776	33088	32700
787	0	37812	33128	32776
788	0	37912	33088	32748
789	0	38008	33136	32716
790	0	37992	33200	32784
791	0	37980	33216	32848
792	0	37952	33192	32892
793	0	37952	33177	32912
794	0	37928	33149	32960
795	0	37896	33120	33032
796	0	37904	33088	33078
797	0	37912	32988	33128
798	0	37952	32944	33200
799	0	37964	32764	33288
800	0	38008	32366	33352
801	0	37864	29742	33676
802	0	37392	31584	34920
803	0	37468	32368	35308
804	0	37952	32608	34878
805	0	38168	32640	34156
806	0	38000	32721	33488
807	0	37804	32880	33012
808	0	37712	33040	32688
809	0	37744	33176	32484
810	0	37820	33328	32364
811	0	37916	33420	32332
812	0	37940	33519	32356
813	0	37940	33512	32433
814	0	37880	33496	32548
815	0	37816	33464	32680
816	0	37752	33456	32800
817	0	37696	33416	32896
818	0	37644	33400	33012
819	0	37620	33408	33156
820	0	37624	33336	33216
821	0	37680	33236	33184
822	0	37724	33200	33176
823	0	37784	33168	33136
824	0	37824	33120	33132
825	0	37848	33076	33181
826	0	37888	33048	33128
827	0	37896	33048	33124
828	0	37920	33048	33160
829	0	37952	33024	33176
830	0	37992	33004	33292
831	0	38104	32996	33536
832	0	38248	33152	33693
833	0	38300	33364	34376
834	0	38212	33620	35508
835	0	38180	33796	36328
836	0	38200	33596	36416
837	0	38064	33112	35512
838	0	37988	32732	34032
839	0	37916	32388	32780
840	0	37868	32304	32028
841	0	37896	32396	31696
842	0	37848	32544	31636
843	0	37816	32640	31628
844	0	37716	32728	31676
845	0	37656	32864	31724
846	0	37632	32984	31784
847	0	37604	33048	31880
848	0	37604	33088	31968
849	0	37564	33105	32072
850	0	37568	33104	32240
851	0	37608	33120	32444
852	0	37644	33144	32632
853	0	37696	33164	32737
854	0	37776	33176	32792
855	0	37832	33205	32808
856	0	37864	33212	32816
857	0	37936	33220	32816
858	0	37972	33233	32828
859	0	38012	33280	32852
860	0	38040	33310	32852
861	0	38072	33325	32864
862	0	38108	33356	32888
863	0	38124	33340	32906
864	0	38128	33360	32924
865	0	38092	33364	32938
866	0	38076	33364	32956
867	0	38072	33384	32960
868	0	38048	33376	32993
869	0	38024	33376	32996
870	0	38024	33392	33000
871	0	38016	33396	33028
872	0	38008	33404	33064
873	0	38016	33409	33129
874	0	38016	33432	33185
875	0	38016	33436	33212
876	0	38008	33420	33252
877	0	38016	33420	33232
878	0	38028	33404	33144
879	0	38028	33372	33025
880	0	38048	33348	32952
881	0	38080	33280	33068
882	0	38160	33372	33232
883	0	38224	33420	33256
884	0	38264	33572	33432
885	0	38208	33672	33720
886	0	38160	33832	34300
887	0	38064	34056	35568
888	0	37916	34320	36873
889	0	37840	34248	37104
890	0	37800	33916	36492
891	0	37864	33544	35448
892	0	38084	33185	34160
893	0	38168	33008	33121
894	0	38188	32808	32164
895	0	38120	32696	31548
896	0	38088	32756	31224
897	0	38052	32780	31036
898	0	37992	32728	30800
899	0	37824	32760	30656
900	0	37696	32817	30796
901	0	37600	32868	31086
902	0	37484	32928	31516
903	0	37372	33012	31932
904	0	37304	33028	32328
905	0	37332	32984	32640
906	0	37392	32980	32836
907	0	37504	32968	33000
908	0	37632	32956	33096
909	0	37728	32968	33173
910	0	37808	32968	33221
911	0	37856	32984	33224
912	0	37912	32980	33224
913	0	37960	32996	33208
914	0	38012	33012	33188
915	0	38064	33024	33156
916	0	38096	33032	33136
917	0	38080	33036	33113
918	0	38048	33073	33088
919	0	38016	33069	33076
920	0	38004	33076	33056
921	0	37960	33084	33064
922	0	37936	33096	33056
923	0	37852	33108	33056
924	0	37848	33092	33080
925	0	37816	33136	33100
926	0	37788	33140	33120
927	0	37800	33144	33148
928	0	37784	33176	33168
929	0	37768	33188	33173
930	0	37784	33184	33192
931	0	37800	33213	33224
932	0	37800	33240	33232
933	0	37832	33240	33212
934	0	37872	33244	33176
935	0	37896	33272	33188
936	0	37944	33336	33240
937	0	37972	33416	33438
938	0	38024	33592	33912
939	0	38040	33757	34380
940	0	37984	33824	34804
941	0	37872	33648	35124
942	0	37732	33460	36664
943	0	37856	33848	37932
944	0	38376	34056	37796
945	0	38752	33852	36748
946	0	38760	33540	35245
947	0	38572	33224	33680
948	0	38248	32896	32084
949	0	37953	32721	31013
950	0	37868	32620	30152
951	0	37804	32520	29668
952	0	37748	32544	29473
953	0	37712	32750	29752
954	0	37688	32884	30108
955	0	37632	33000	30556
956	0	37504	33072	31048
957	0	37416	33104	31504
958	0	37344	33136	31900
959	0	37340	33113	32264
960	0	37392	33060	32560
961	0	37484	33032	32764
962	0	37616	33032	32927
963	0	37724	33052	33048
964	0	37792	33052	33112
965	0	37856	33076	33144
966	0	37932	33088	33152
967	0	37992	33092	33136
968	0	38052	33124	33128
969	0	38112	33128	33112
970	0	38172	33128	33108
971	0	38212	33104	33132
972	0	38232	33108	33132
973	0	38200	33092	33148
974	0	38164	33089	33160
975	0	38120	33084	33172
976	0	38088	33092	33164
977	0	38032	33072	33168
978	0	37992	33064	33176
979	0	37940	33061	33180
980	0	37904	33072	33204
981	0	37872	33104	33205
982	0	37860	33120	33216
983	0	37872	33108	33208
984	0	37904	33136	33188
985	0	37912	33140	33148
986	0	37917	33177	33112
987	0	37928	33208	33092
988	0	37952	33212	33076
989	0	37952	33216	33052
990	0	37952	33216	33044
991	0	37944	33228	33048
992	0	37976	33220	33080
993	0	37968	33228	33112
994	0	37984	33232	33172
995	0	37972	33248	33256
996	0	37960	33292	33376
997	0	37944	33340	33520
998	0	37960	33432	33712
999	0	38044	33616	34120
1000	0	38104	33880	34928
1001	0	38080	33944	36524
1002	0	37880	34340	39208
1003	0	38016	34700	40468
1004	0	38472	34511	39776
1005	0	38704	34172	38104
1006	0	38744	33608	35926
1007	0	38640	32960	33437
1008	0	38352	32364	30832
1009	0	37948	32064	28928
1010	0	37704	32024	28024
1011	0	37608	32088	27896
1012	0	37604	32340	28412
1013	0	37668	32596	29289
1014	0	37720	32748	30088
1015	0	37680	32828	30764
1016	0	37584	32888	31325
1017	0	37489	32928	31789
1018	0	37428	32957	32108
1019	0	37412	32996	32368
1020	0	37432	33057	32576
1021	0	37488	33112	32728
1022	0	37592	33160	32852
1023	0	37728	33192	32924
1024	0	37824	33220	32968
1025	0	37932	33220	32972
1026	0	37992	33188	32948
1027	0	38048	33173	32948
1028	0	38096	33164	32992
1029	0	38104	33136	33044
1030	0	38128	33134	33096
1031	0	38136	33116	33152
1032	0	38136	33141	33284
1033	0	38168	33256	33576
1034	0	38224	33444	34060
1035	0	38264	33816	35148
1036	0	38460	34272	37084
1037	0	38528	34612	39624
1038	0	38612	34616	40080
1039	0	38680	34056	38448
1040	0	38592	33308	35540
1041	0	38272	32656	32724
1042	0	37700	32228	30618
1043	0	37528	32084	29372
1044	0	37496	32092	29020
1045	0	37520	32229	29168
1046	0	37492	32516	29740
1047	0	37436	32748	30384
1048	0	37400	32940	31140
1049	0	37416	32908	31408
1050	0	37360	33040	32028
1051	0	37420	33084	32500
1052	0	37432	33122	32872
1053	0	37480	33196	33220
1054	0	37588	33172	33280
1055	0	37556	33132	33104
1056	0	37616	33112	33072
1057	0	37696	32950	32484
1058	0	37608	32940	32250
1059	0	37648	32928	32044
1060	0	37732	32936	31932
1061	0	37792	32976	31964
1062	0	37844	32936	31872
1063	0	37832	32952	31952
1064	0	37824	32960	32089
1065	0	37852	32980	32296
1066	0	37864	32996	32492
1067	0	37888	32996	32648
1068	0	37924	32992	32780
1069	0	37956	32988	32900
1070	0	37960	32982	32988
1071	0	37962	32980	33040
1072	0	37956	32970	33072
1073	0	37928	32968	33048
1074	0	37916	32976	33044
1075	0	37928	32992	32988
1076	0	37916	33008	32964
1077	0	37904	33058	32952
1078	0	37952	33054	32941
1079	0	37956	33100	32928
1080	0	37952	33108	32912
1081	0	37952	33116	32952
1082	0	37944	33128	32976
1083	0	37924	33124	33012
1084	0	37868	33112	33040
1085	0	37833	33116	33088
1086	0	37764	33088	33292
1087	0	37664	33084	33560
1088	0	37712	33080	33620
1089	0	37792	33069	33468
1090	0	37856	33040	33188
1091	0	37912	33032	32958
1092	0	37952	33108	32832
1093	0	37984	33172	32836
1094	0	38008	33248	32936
1095	0	38040	33308	33104
1096	0	38040	33360	33336
1097	0	38064	33336	33496
1098	0	38008	33224	33525
1099	0	37984	33057	33472
1100	0	37992	33012	33404
1101	0	38152	32872	33076
1102	0	38192	32844	32720
1103	0	38220	32844	32548
1104	0	38192	32836	32381
1105	0	38120	32828	32100
1106	0	38032	32876	32056
1107	0	37960	32888	32064
1108	0	37920	32940	32213
1109	0	37884	32968	32380
1110	0	37896	32988	32548
1111	0	37908	33008	32680
1112	0	37944	33018	32772
1113	0	37980	33008	32852
1114	0	38024	33021	32900
1115	0	38048	33024	32940
1116	0	38080	33032	32972
1117	0	38104	33040	32992
1118	0	38144	33056	32988
1119	0	38168	33068	32972
1120	0	38192	33076	32964
1121	0	38200	33088	32968
1122	0	38216	33088	32980
1123	0	38224	33088	32976
1124	0	38208	33076	32984
1125	0	38192	33064	32980
1126	0	38208	33048	32988
1127	0	38216	33024	33000
1128	0	38232	33012	32992
1129	0	38248	33008	32992
1130	0	38264	33012	32984
1131	0	38264	33000	32984
1132	0	38249	32992	32988
1133	0	38248	33000	32976
1134	0	38228	32992	32990
1135	0	38208	32992	32992
1136	0	38204	32984	32973
1137	0	38177	32988	32960
1138	0	38160	32984	32948
1139	0	38144	32980	32944
1140	0	38140	32997	32936
1141	0	38120	33000	32933
1142	0	38120	33005	32928
1143	0	38116	33020	32920
1144	0	38092	33008	32924
1145	0	38080	33016	32913
1146	0	38068	33028	32900
1147	0	38032	33022	32892
1148	0	38016	33024	32876
1149	0	38008	33037	32881
1150	0	38012	33016	32880
1151	0	38000	33028	32900
1152	0	38000	33017	32896
1153	0	37988	33008	32888
1154	0	37992	33008	32884
1155	0	37968	33008	32892
1156	0	37966	33000	32884
1157	0	37968	32996	32876
1158	0	37952	32990	32868
1159	0	37944	32988	32868
1160	0	37920	32984	32864
1161	0	37920	32976	32864
1162	0	37920	32972	32860
1163	0	37888	32981	32852
1164	0	37884	32972	32852
1165	0	37868	32972	32840
1166	0	37868	32984	32840
1167	0	37852	33000	32832
1168	0	37868	32988	32852
1169	0	37849	33004	32844
1170	0	37848	33014	32828
1171	0	37856	33008	32840
1172	0	37844	33020	32848
1173	0	37832	33040	32848
1174	0	37840	33036	32856
1175	0	37848	33032	32865
1176	0	37840	33009	32868
1177	0	37844	33008	32876
1178	0	37832	32998	32880
1179	0	37836	32981	32893
1180	0	37816	32980	32888
1181	0	37824	32960	32892
1182	0	37824	32960	32896
1183	0	37824	32940	32896
1184	0	37816	32940	32896
1185	0	37816	32924	32900
1186	0	37824	32909	32900
1187	0	37828	32912	32888
1188	0	37832	32917	32880
1189	0	37852	32894	32888
1190	0	37860	32900	32872
1191	0	37856	32888	32864
1192	0	37856	32896	32856
1193	0	37848	32900	32856
1194	0	37864	32900	32865
1195	0	37876	32896	32868
1196	0	37880	32889	32868
1197	0	37888	32845	32893
1198	0	37912	32848	32920
1199	0	37896	32852	32932
1200	0	37904	32872	32908
1201	0	37908	32877	32900
1202	0	37908	32888	32900
1203	0	37912	32897	32896
1204	0	37880	32912	32888
1205	0	37884	32916	32866
1206	0	37864	32924	32864
1207	0	37852	32908	32868
1208	0	37856	32900	32880
1209	0	37840	32909	32884
1210	0	37840	32901	32888
1211	0	37848	32892	32900
1212	0	37848	32888	32904
1213	0	37832	32884	32920
1214	0	37856	32872	32920
1215	0	37856	32868	32912
1216	0	37864	32872	32896
1217	0	37868	32848	32904
1218	0	37868	32832	32888
1219	0	37880	32828	32888
1220	0	37884	32820	32888
1221	0	37900	32808	32892
1222	0	37920	32784	32884
1223	0	37924	32784	32877
1224	0	37944	32772	32880
1225	0	37944	32780	32872
1226	0	37940	32784	32864
1227	0	37952	32788	32868
1228	0	37952	32792	32861
1229	0	37956	32796	32856
1230	0	37952	32800	32856
1231	0	37968	32828	32824
1232	0	37976	32840	32836
1233	0	37968	32868	32824
1234	0	37984	32888	32829
1235	0	37992	32904	32824
1236	0	37988	32916	32844
1237	0	37972	32940	32852
1238	0	37948	32960	32852
1239	0	37928	32956	32856
1240	0	37932	32968	32884
1241	0	37944	32988	32896
1242	0	37972	32984	32900
1243	0	37992	32976	32916
1244	0	38008	32988	32933
1245	0	38000	32964	32948
1246	0	38016	32957	32956
1247	0	38028	32968	32964
1248	0	38008	32968	32968
1249	0	38024	32964	32984
1250	0	38048	32940	33004
1251	0	38048	32940	33016
1252	0	38072	32932	33004
1253	0	38084	32936	33008
1254	0	38100	32944	33008
1255	0	38136	32928	33017
1256	0	38160	32920	33010
1257	0	38176	32928	33020
1258	0	38160	32927	33016
1259	0	38176	32928	33020
1260	0	38184	32920	33024
1261	0	38168	32912	33052
1262	0	38172	32904	33064
1263	0	38168	32904	33080
1264	0	38156	32916	33076
1265	0	38164	32916	33064
1266	0	38132	32908	33076
1267	0	38132	32932	33068
1268	0	38100	32928	33064
1269	0	38104	32928	33064
1270	0	38120	32948	33056
1271	0	38096	32952	33032
1272	0	38076	32952	33056
1273	0	38064	32968	33048
1274	0	38064	32960	33056
1275	0	38044	32960	33053
1276	0	38048	32960	33053
1277	0	38020	32960	33056
1278	0	38024	32928	33056
1279	0	38040	32920	33060
1280	0	38008	32912	33040
1281	0	38000	32888	33052
1282	0	37992	32865	33048
1283	0	37992	32848	33056
1284	0	37984	32840	33048
1285	0	37976	32808	33044
1286	0	37984	32784	33028
1287	0	37964	32773	33040
1288	0	37936	32761	33040
1289	0	37952	32740	33025
1290	0	37928	32724	33024
1291	0	37904	32720	33012
1292	0	37884	32705	33004
1293	0	37884	32696	33000
1294	0	37892	32704	33004
1295	0	37912	32688	32992
1296	0	37896	32712	32988
1297	0	37888	32720	32984
1298	0	37908	32736	32980
1299	0	37923	32748	32961
1300	0	37968	32784	32940
1301	0	38000	32820	32940
1302	0	38024	32864	32928
1303	0	38024	32920	32904
1304	0	38040	32952	32892
1305	0	38040	32972	32888
1306	0	38036	33000	32877
1307	0	38048	33028	32862
1308	0	38032	33028	32844
1309	0	38036	33060	32836
1310	0	38028	33060	32852
1311	0	38024	33069	32876
1312	0	38032	33068	32912
1313	0	38024	33069	32936
1314	0	38028	33064	32956
1315	0	38052	33068	32969
1316	0	38088	33080	32961
1317	0	38088	33088	32976
1318	0	38080	33108	32968
1319	0	38108	33112	32960
1320	0	38100	33128	32956
1321	0	38112	33152	32957
1322	0	38128	33160	32960
1323	0	38160	33169	32964
1324	0	38160	33185	32952
1325	0	38176	33180	32960
1326	0	38160	33164	32972
1327	0	38188	33160	32984
1328	0	38216	33176	32992
1329	0	38208	33196	32989
1330	0	38196	33192	32985
1331	0	38208	33196	32972
1332	0	38212	33220	32976
1333	0	38208	33212	32988
1334	0	38176	33208	33004
1335	0	38152	33224	32996
1336	0	38124	33212	32992
1337	0	38108	33209	33009
1338	0	38096	33192	33008
1339	0	38096	33200	33008
1340	0	38080	33196	33016
1341	0	38064	33192	33014
1342	0	38048	33188	33020
1343	0	38016	33180	33020
1344	0	38028	33176	33016
1345	0	37992	33186	32992
1346	0	37992	33176	32976
1347	0	37976	33176	32991
1348	0	37952	33176	32960
1349	0	37956	33180	32956
1350	0	37936	33156	32944
1351	0	37928	33156	32952
1352	0	37916	33148	32973
1353	0	37896	33120	32964
1354	0	37888	33120	32960
1355	0	37868	33096	32968
1356	0	37864	33076	32972
1357	0	37884	33064	32968
1358	0	37868	33040	32968
1359	0	37852	33020	32984
1360	0	37824	33004	32980
1361	0	37832	33000	32984
1362	0	37836	32980	32984
1363	0	37824	32976	32980
1364	0	37824	32964	32984
1365	0	37816	32936	32976
1366	0	37824	32920	32980
1367	0	37816	32909	32984
1368	0	37820	32884	32992
1369	0	37805	32872	33000
1370	0	37796	32856	32992
1371	0	37772	32860	32992
1372	0	37760	32848	32992
1373	0	37752	32844	33008
1374	0	37760	32848	32992
1375	0	37744	32832	33008
1376	0	37724	32824	33000
1377	0	37701	32824	33004
1378	0	37684	32836	32992
1379	0	37664	32808	33004
1380	0	37672	32796	33012
1381	0	37696	32784	33000
1382	0	37728	32776	33008
1383	0	37748	32769	33029
1384	0	37784	32746	33052
1385	0	37824	32744	33072
1386	0	37844	32748	33080
1387	0	37840	32750	33092
1388	0	37836	32754	33108
1389	0	37816	32780	33112
1390	0	37800	32776	33120
1391	0	37816	32776	33116
1392	0	37808	32768	33116
1393	0	37816	32772	33116
1394	0	37832	32767	33116
1395	0	37872	32744	33132
1396	0	37876	32736	33144
1397	0	37888	32713	33166
1398	0	37904	32696	33168
1399	0	37928	32692	33177
1400	0	37920	32676	33180
1401	0	37912	32672	33184
1402	0	37924	32664	33188
1403	0	37940	32672	33188
1404	0	37952	32680	33177
1405	0	37944	32692	33176
1406	0	37944	32708	33180
1407	0	37968	32712	33180
1408	0	37952	32720	33184
1409	0	37960	32724	33181
1410	0	37948	32740	33168
1411	0	37940	32768	33164
1412	0	37932	32776	33168
1413	0	37944	32792	33156
1414	0	37952	32808	33148
1415	0	37933	32828	33112
1416	0	37932	32832	33108
1417	0	37928	32836	33101
1418	0	37944	32844	33096
1419	0	37964	32852	33096
1420	0	37968	32840	33104
1421	0	37960	32824	33124
1422	0	37932	32844	33105
1423	0	37924	32844	33120
1424	0	37908	32844	33112
1425	0	37912	32824	33128
1426	0	37912	32820	33116
1427	0	37908	32816	33108
1428	0	37904	32816	33112
1429	0	37880	32820	33116
1430	0	37880	32824	33112
1431	0	37892	32804	33104
1432	0	37900	32808	33104
1433	0	37904	32788	33108
1434	0	37904	32788	33112
1435	0	37900	32788	33104
1436	0	37872	32788	33104
1437	0	37888	32788	33112
1438	0	37896	32780	33108
1439	0	37896	32784	33105
1440	0	37892	32768	33112
1441	0	37860	32772	33120
1442	0	37844	32772	33128
1443	0	37856	32760	33116
1444	0	37860	32752	33100
1445	0	37848	32756	33088
1446	0	37852	32754	33076
1447	0	37856	32732	33064
1448	0	37852	32716	33048
1449	0	37852	32704	33048
1450	0	37860	32708	33044
1451	0	37840	32696	33017
1452	0	37852	32704	32968
1453	0	37848	32684	32932
1454	0	37828	32716	32928
1455	0	37800	32752	32893
1456	0	37656	32893	32760
1457	0	37568	32708	32492
1458	0	37596	32628	32344
1459	0	37713	32600	32302
1460	0	37849	32644	32396
1461	0	37952	32596	32544
1462	0	37964	32540	32752
1463	0	37920	32516	32992
1464	0	37912	32444	33212
1465	0	37852	32452	33364
1466	0	37844	32408	33388
1467	0	37868	32444	33400
1468	0	37896	32446	33429
1469	0	37928	32513	33416
1470	0	37968	32576	33405
1471	0	38040	32620	33384
1472	0	38092	32608	33356
1473	0	38120	32672	33352
1474	0	38148	32740	33356
1475	0	38152	32796	33320
1476	0	38220	32860	33276
1477	0	38232	32924	33256
1478	0	38200	32920	33248
1479	0	38228	32908	33248
1480	0	38204	32916	33260
1481	0	38208	32894	33272
1482	0	38240	32880	33328
1483	0	38248	32880	33352
1484	0	38256	32897	33408
1485	0	38244	32932	33448
1486	0	38216	32944	33468
1487	0	38196	32948	33465
1488	0	38144	32952	33448
1489	0	38124	32946	33408
1490	0	38144	32944	33364
1491	0	38144	32948	33352
1492	0	38168	32940	33340
1493	0	38152	32944	33328
1494	0	38136	32941	33316
1495	0	38108	32936	33296
1496	0	38104	32944	33268
1497	0	38104	32956	33244
1498	0	38088	32972	33220
1499	0	38113	32988	33180
1500	0	38104	32981	33146
1501	0	38088	32992	33088
1502	0	38032	32986	33008
1503	0	37984	32972	32888
1504	0	37952	33004	32776
1505	0	37944	33032	32680
1506	0	37960	33052	32700
1507	0	37944	33054	32722
1508	0	37920	33068	32788
1509	0	37864	33124	32868
1510	0	37804	33164	32936
1511	0	37396	33288	32688
1512	0	37328	32944	32488
1513	0	37336	32872	32480
1514	0	37341	32816	32400
1515	0	37480	32776	32373
1516	0	37664	32768	32360
1517	0	37752	32760	32408
1518	0	37744	32768	32576
1519	0	37736	32756	32728
1520	0	37712	32793	32952
1521	0	37736	32748	33148
1522	0	37800	32716	33332
1523	0	37824	32708	33460
1524	0	37848	32736	33576
1525	0	37920	32804	33692
1526	0	38004	32880	33661
1527	0	38064	32892	33544
1528	0	38088	32958	33456
1529	0	38056	33009	33304
1530	0	38036	33016	33224
1531	0	37996	33056	33256
1532	0	37976	33068	33290
1533	0	37980	33056	33316
1534	0	37936	33036	33296
1535	0	37896	33036	33248
1536	0	37848	33024	33288
1537	0	37824	33028	33332
1538	0	37852	32984	33308
1539	0	37848	32928	33308
1540	0	37824	32952	33320
1541	0	37792	32920	33296
1542	0	37752	32916	33332
1543	0	37744	32884	33324
1544	0	37752	32896	33336
1545	0	37768	32889	33244
1546	0	37752	32868	33220
1547	0	37736	32860	33284
1548	0	37784	32832	33348
1549	0	37824	32816	33396
1550	0	37832	32752	33432
1551	0	37852	32729	33552
1552	0	37848	32712	33620
1553	0	37868	32704	33580
1554	0	37920	32700	33516
1555	0	37888	32704	33428
1556	0	37888	32684	33400
1557	0	37896	32700	33460
1558	0	37920	32704	33456
1559	0	37936	32697	33376
1560	0	37936	32672	33296
1561	0	37884	32652	33392
1562	0	37868	32632	33516
1563	0	37872	32608	33576
1564	0	37896	32600	33572
1565	0	37868	32576	33504
1566	0	37864	32584	33584
1567	0	37836	32604	33662
1568	0	37852	32560	33668
1569	0	37872	32544	33736
1570	0	37856	32580	33772
1571	0	37912	32524	33792
1572	0	37908	32528	33872
1573	0	37876	32497	33901
1574	0	37872	32468	33936
1575	0	37905	32488	33916
1576	0	37908	32540	33880
1577	0	37892	32600	33792
1578	0	37880	32624	33696
1579	0	37880	32640	33600
1580	0	37868	32632	33528
1581	0	37848	32624	33472
1582	0	37860	32592	33460
1583	0	37852	32604	33432
1584	0	37828	32596	33457
1585	0	37824	32600	33456
1586	0	37824	32576	33468
1587	0	37828	32564	33464
1588	0	37780	32532	33486
1589	0	37800	32516	33492
1590	0	37800	32480	33484
1591	0	37964	32102	33528
1592	0	38120	32316	33492
1593	0	37624	32520	33436
1594	0	37368	32608	33440
1595	0	37340	32672	33428
1596	0	37368	32776	33324
1597	0	37520	32825	33240
1598	0	37656	32868	33172
1599	0	37724	32908	33156
1600	0	37800	32912	33168
1601	0	37820	32909	33208
1602	0	37848	32884	33276
1603	0	37864	32844	33332
1604	0	37860	32808	33384
1605	0	37860	32784	33444
1606	0	37836	32780	33472
1607	0	37824	32780	33481
1608	0	37808	32760	33492
1609	0	37792	32765	33472
1610	0	37784	32761	33452
1611	0	37760	32764	33420
1612	0	37780	32756	33404
1613	0	37776	32769	33384
1614	0	37760	32788	33353
1615	0	37752	32800	33328
1616	0	37736	32796	33304
1617	0	37712	32800	33272
1618	0	37696	32804	33276
1619	0	37704	32792	33268
1620	0	37688	32784	33272
1621	0	37664	32769	33264
1622	0	37656	32769	33244
1623	0	37640	32772	33224
1624	0	37600	32776	33220
1625	0	37596	32768	33228
1626	0	37584	32768	33220
1627	0	37568	32760	33224
1628	0	37576	32760	33208
1629	0	37600	32750	33208
1630	0	37608	32732	33236
1631	0	37616	32720	33248
1632	0	37640	32704	33256
1633	0	37648	32692	33272
1634	0	37656	32672	33297
1635	0	37676	32680	33328
1636	0	37688	32673	33352
1637	0	37724	32656	33380
1638	0	37752	32640	33392
1639	0	37788	32644	33400
1640	0	37804	32640	33408
1641	0	37844	32632	33424
1642	0	37888	32624	33457
1643	0	37917	32608	33485
1644	0	37956	32592	33492
1645	0	38000	32572	33540
1646	0	38040	32512	33590
1647	0	38080	32484	33628
1648	0	38096	32493	33660
1649	0	38104	32512	33676
1650	0	38112	32541	33665
1651	0	38100	32560	33648
1652	0	38088	32589	33612
1653	0	38096	32657	33616
1654	0	38100	32780	33756
1655	0	38100	32840	33856
1656	0	38096	32932	33976
1657	0	38096	33016	34144
1658	0	38036	33008	34140
1659	0	37986	33012	34088
1660	0	37960	32932	33880
1661	0	37972	32828	33572
1662	0	38088	32793	33344
1663	0	38152	32748	33116
1664	0	38248	32808	32985
1665	0	38320	32860	32880
1666	0	38348	32904	32828
1667	0	38328	32978	32829
1668	0	38344	33032	32884
1669	0	38320	33066	32988
1670	0	38288	33109	33120
1671	0	38256	33164	33284
1672	0	38200	33168	33404
1673	0	38145	33200	33500
1674	0	38080	33172	33560
1675	0	38056	33124	33576
1676	0	38060	33104	33572
1677	0	38072	33109	33556
1678	0	38072	33020	33448
1679	0	38080	32988	33324
1680	0	38136	33000	33272
1681	0	38152	33000	33228
1682	0	38152	32972	33176
1683	0	38152	33008	33168
1684	0	38132	33040	33200
1685	0	38072	33018	33224
1686	0	38048	33052	33256
1687	0	37988	33072	33316
1688	0	37921	33064	33316
1689	0	37856	33061	33288
1690	0	37804	33080	33304
1691	0	37816	33104	33360
1692	0	37760	33076	33324
1693	0	37712	33024	33216
1694	0	37696	33036	33145
1695	0	37704	33052	33108
1696	0	37704	33056	33068
1697	0	37696	33040	32976
1698	0	37728	33053	32944
1699	0	37760	33112	32990
1700	0	37760	33156	33036
1701	0	37744	33224	33120
1702	0	37688	33205	33132
1703	0	37640	33168	33120
1704	0	37644	33185	33152
1705	0	37640	33160	33164
1706	0	37672	33208	33196
1707	0	37720	33224	33220
1708	0	37728	33180	33232
1709	0	37736	33132	33196
1710	0	37764	33096	33176
1711	0	37796	33096	33104
1712	0	37832	33136	33064
1713	0	37860	33160	33006
1714	0	37904	33188	33009
1715	0	37920	33196	33028
1716	0	37924	33172	33072
1717	0	37884	33100	33044
1718	0	37892	33100	33032
1719	0	38012	32888	33160
1720	0	38200	33032	33444
1721	0	38272	33172	33588
1722	0	38280	33304	33752
1723	0	38196	33412	33920
1724	0	38060	33456	34066
1725	0	37960	33416	34072
1726	0	37920	33436	34040
1727	0	37852	33328	33924
1728	0	37788	33200	33748
1729	0	37812	33168	33745
1730	0	37788	33064	33824
1731	0	37816	33110	33721
1732	0	37888	33128	33452
1733	0	38014	33176	33396
1734	0	37976	33096	33357
1735	0	37952	33080	33228
1736	0	37912	33060	33144
1737	0	37900	32988	32928
1738	0	37944	32961	32700
1739	0	37928	32928	32728
1740	0	37880	32917	32748
1741	0	37880	32908	32916
1742	0	37848	32892	33001
1743	0	37896	32868	33136
1744	0	37888	32688	33172
1745	0	37876	32604	33152
1746	0	37852	32628	33192
1747	0	37792	32684	33248
1748	0	37800	32685	33288
1749	0	37828	32728	33272
1750	0	37908	32788	33301
1751	0	37932	32824	33296
1752	0	37920	32912	33384
1753	0	37916	32992	33472
1754	0	37896	33045	33504
1755	0	37872	33096	33488
1756	0	37880	33236	33480
1757	0	37808	33500	33492
1758	0	37824	33560	33469
1759	0	37816	33580	33508
1760	0	37744	33532	33508
1761	0	37712	33388	33464
1762	0	37864	33152	33496
1763	0	38012	33068	33504
1764	0	38080	33116	33504
1765	0	38048	33232	33436
1766	0	38112	33364	33404
1767	0	38104	33388	33308
1768	0	38036	33368	33184
1769	0	38060	33368	33104
1770	0	38080	33404	33120
1771	0	38076	33424	33136
1772	0	38112	33405	33088
1773	0	38156	33244	32984
1774	0	38320	32852	33020
1775	0	38528	32704	33000
1776	0	38388	33024	33152
1777	0	38136	33144	33244
1778	0	38032	33216	33268
1779	0	38024	33184	33204
1780	0	38080	33156	33096
1781	0	38184	33156	33020
1782	0	38217	33104	33005
1783	0	38200	33040	32972
1784	0	38240	33000	32928
1785	0	38244	32996	32900
1786	0	38260	32992	32932
1787	0	38276	32972	33040
1788	0	38232	32980	33008
1789	0	38239	33040	33020
1790	0	38176	33092	32982
1791	0	38128	33092	32924
1792	0	38112	33100	32960
1793	0	38044	33028	32936
1794	0	37960	33048	32916
1795	0	38012	32980	32960
1796	0	38000	32832	32936
1797	0	38028	32732	32904
1798	0	37956	32732	32940
1799	0	37956	32820	32980
1800	0	37892	32888	32985
1801	0	37840	32916	32981
1802	0	37800	32912	32928
1803	0	37776	32788	32832
1804	0	37828	32792	32812
1805	0	37888	32812	32908
1806	0	37888	32760	32912
1807	0	37968	32672	32848
1808	0	38016	32788	32848
1809	0	37992	32876	32884
1810	0	37944	32852	32888
1811	0	37864	32928	32984
1812	0	37872	32928	33068
1813	0	37848	32928	33100
1814	0	37864	32920	33112
1815	0	37904	32880	33104
1816	0	37960	32864	33036
1817	0	38012	32772	32968
1818	0	38056	32814	32968
1819	0	38016	32984	33052
1820	0	38016	32937	33000
1821	0	38060	32944	33072
1822	0	38044	32992	33100
1823	0	37980	32984	33120
1824	0	37980	32908	33040
1825	0	38084	32836	32928
1826	0	38136	32956	32936
1827	0	38084	33148	32952
1828	0	37952	33200	32856
1829	0	37944	33208	32832
1830	0	37976	33092	32789
1831	0	37992	33096	32792
1832	0	38032	33156	32776
1833	0	38036	33340	32776
1834	0	38004	33432	32760
1835	0	37976	33384	32820
1836	0	37936	33274	32868
1837	0	37944	33200	32876
1838	0	37892	33224	32896
1839	0	37896	33209	32936
1840	0	37844	33312	32936
1841	0	37764	33336	32940
1842	0	37716	33300	32920
1843	0	37772	33336	32972
1844	0	37808	33400	32996
1845	0	37808	33545	33144
1846	0	37800	33564	33200
1847	0	37852	33564	33284
1848	0	37848	33608	33300
1849	0	37888	33620	33336
1850	0	37928	33656	33308
1851	0	37952	33641	33260
1852	0	37968	33572	33288
1853	0	37976	33480	33252
1854	0	37936	33404	33260
1855	0	37920	33312	33272
1856	0	37920	33244	33241
1857	0	37901	33268	33240
1858	0	37872	33324	33221
1859	0	37856	33372	33208
1860	0	37840	33380	33189
1861	0	37876	33328	33164
1862	0	37896	33300	33148
1863	0	37880	33224	33136
1864	0	37848	33220	33140
1865	0	37820	33177	33118
1866	0	37784	33148	33168
1867	0	37776	33172	33204
1868	0	37784	33196	33196
1869	0	37784	33196	33108
1870	0	37784	33240	33164
1871	0	37864	33148	33192
1872	0	37916	32961	33000
1873	0	37872	32900	32916
1874	0	37852	32830	32932
1875	0	37856	32832	33072
1876	0	37924	32916	33332
1877	0	38040	32964	33500
1878	0	38152	32888	33448
1879	0	38168	32924	33468
1880	0	38153	32896	33408
1881	0	38108	32844	33240
1882	0	38016	32808	33180
1883	0	37944	32736	33108
1884	0	37908	32868	33189
1885	0	37920	33040	33416
1886	0	37984	32968	33328
1887	0	37952	32968	33312
1888	0	37920	33108	33448
1889	0	37924	33152	33472
1890	0	37968	33096	33296
1891	0	37940	33116	33336
1892	0	37920	33036	33292
1893	0	37892	33056	33337
1894	0	37928	33116	33400
1895	0	37928	33085	33348
1896	0	37896	33024	33308
1897	0	37892	32928	33300
1898	0	37852	32992	33368
1899	0	37824	33040	33380
1900	0	37864	32984	33352
1901	0	37904	32991	33368
1902	0	37884	32900	33232
1903	0	37849	32956	33341
1904	0	37856	32836	33160
1905	0	37836	32892	33052
1906	0	37768	32868	33024
1907	0	37816	32876	33164
1908	0	37912	32824	33276
1909	0	37992	32720	33177
1910	0	38012	32616	33108
1911	0	37924	32608	33160
1912	0	37848	32740	33311
1913	0	37864	32636	33169
1914	0	37844	32696	33166
1915	0	37848	32768	33272
1916	0	37856	32740	33153
1917	0	37832	32684	33096
1918	0	37828	32796	33320
1919	0	37868	32728	33152
1920	0	37824	32804	33200
1921	0	37752	32820	33209
1922	0	37748	32711	33024
1923	0	37680	32624	32956
1924	0	37592	32768	33228
1925	0	37688	32784	33188
1926	0	37728	32780	33097
1927	0	37724	32668	32988
1928	0	37676	32752	33145
1929	0	37696	32736	33104
1930	0	37716	32929	33292
1931	0	37744	33016	33360
1932	0	37824	33036	33408
1933	0	37864	32968	33205
1934	0	37844	32980	33160
1935	0	37764	33024	33264
1936	0	37764	32944	33244
1937	0	37772	32888	33208
1938	0	37756	32836	33200
1939	0	37752	32820	33220
1940	0	37760	32936	33364
1941	0	37808	32996	33408
1942	0	37916	32900	33284
1943	0	37916	32916	33330
1944	0	37920	32898	33288
1945	0	37940	32817	33272
1946	0	37952	32792	33276
1947	0	37904	32793	33242
1948	0	37848	32862	33376
1949	0	37884	32904	33380
1950	0	37904	32968	33436
1951	0	37948	32988	33484
1952	0	37980	32952	33400
1953	0	37936	32908	33300
1954	0	37868	32996	33437
1955	0	37880	33020	33548
1956	0	37952	32992	33516
1957	0	37944	32976	33456
1958	0	37944	33028	33504
1959	0	37908	33000	33441
1960	0	37888	33032	33436
1961	0	37840	33089	33568
1962	0	37856	33132	33596
1963	0	37892	33184	33608
1964	0	37920	33172	33572
1965	0	37912	33156	33500
1966	0	37932	32996	33320
1967	0	37860	32928	33260
1968	0	37792	32892	33270
1969	0	37792	32852	33284
1970	0	37792	32844	33300
1971	0	37797	32808	33308
1972	0	37844	32772	33330
1973	0	37876	32748	33340
1974	0	37888	32912	33600
1975	0	37976	32972	33724
1976	0	38056	33064	33756
1977	0	38160	33048	33648
1978	0	38124	32936	33460
1979	0	38048	32936	33432
1980	0	37944	32932	33476
1981	0	37896	32916	33456
1982	0	37872	32936	33477
1983	0	37840	32916	33472
1984	0	37824	32836	33376
1985	0	37824	32718	33232
1986	0	37784	32680	33208
1987	0	37768	32625	33296
1988	0	37728	32612	33292
1989	0	37728	32636	33356
1990	0	37784	32584	33313
1991	0	37816	32492	33192
1992	0	37768	32392	33028
1993	0	37740	32496	33212
1994	0	37776	32584	33344
1995	0	37816	32664	33492
1996	0	37908	32648	33376
1997	0	37928	32600	33236
1998	0	37888	32652	33296
1999	0	37856	32816	33532
2000	0	37924	32852	33560
2001	0	37956	32876	33504
2002	0	37936	32872	33393
2003	0	37856	32824	33276
2004	0	37768	32880	33344
2005	0	37732	32856	33252
2006	0	37712	32840	33180
2007	0	37656	32889	33256
2008	0	37640	32856	33208
2009	0	37664	32825	33144
2010	0	37680	32760	33108
2011	0	37656	32832	33260
2012	0	37684	32840	33280
2013	0	37728	32780	33164
2014	0	37768	32740	33104
2015	0	37760	32832	33284
2016	0	37796	32712	33121
2017	0	37824	32732	33192
2018	0	37824	32720	33200
2019	0	37832	32750	33320
2020	0	37848	32788	33352
2021	0	37904	32744	33208
2022	0	37920	32592	32976
2023	0	37828	32750	33256
2024	0	37824	32900	33564
2025	0	37984	32872	33380
2026	0	38064	32984	33472
2027	0	38080	32944	33372
2028	0	38057	32964	33392
2029	0	38024	32984	33400
2030	0	38014	33063	33520
2031	0	38020	33072	33504
2032	0	38048	33068	33488
2033	0	38040	33016	33436
2034	0	37976	33009	33436
2035	0	37960	32944	33360
2036	0	37888	32876	33312
2037	0	37872	32852	33344
2038	0	37856	32784	33284
2039	0	37844	32716	33192
2040	0	37840	32597	33060
2041	0	37792	32541	33069
2042	0	37736	32540	33128
2043	0	37744	32566	33248
2044	0	37784	32440	33044
2045	0	37768	32505	33196
2046	0	37792	32488	33148
2047	0	37840	32569	33256
2048	0	37872	32788	33565
2049	0	37968	32776	33488
2050	0	38032	32809	33432
2051	0	38040	32872	33484
2052	0	38008	32852	33400
2053	0	37968	32876	33360
2054	0	37920	32956	33408
2055	0	37920	33076	33389
2056	0	37872	33244	33496
2057	0	37976	33220	33412
2058	0	38008	33284	33500
2059	0	37996	33388	33660
2060	0	38044	33280	33472
2061	0	38040	33292	33524
2062	0	38024	33168	33428
2063	0	37960	33068	33252
2064	0	37908	33036	33288
2065	0	37852	33008	33304
2066	0	37872	32993	33344
2067	0	37920	32932	33296
2068	0	37936	32872	33284
2069	0	37936	32800	33180
2070	0	37952	32760	33208
2071	0	37940	32760	33248
2072	0	37964	32748	33260
2073	0	38028	32640	33056
2074	0	37984	32608	32936
2075	0	37856	32616	33016
2076	0	37864	32600	33104
2077	0	37937	32608	33128
2078	0	38016	32736	33333
2079	0	38096	32688	33244
2080	0	38152	32697	33170
2081	0	38144	32720	33212
2082	0	38128	32669	33088
2083	0	38096	32628	33044
2084	0	38000	32780	33296
2085	0	38028	32856	33286
2086	0	38112	32888	33224
2087	0	38120	32788	33088
2088	0	38064	32832	33116
2089	0	38048	32892	33232
2090	0	38080	33056	33500
2091	0	38220	33044	33356
2092	0	38252	33072	33332
2093	0	38248	32944	33164
2094	0	38152	33004	33248
2095	0	38128	33080	33464
2096	0	38192	33080	33420
2097	0	38248	33092	33396
2098	0	38224	33096	33336
2099	0	38208	33084	33188
2100	0	38124	33184	33256
2101	0	38100	33192	33252
2102	0	38104	33284	33296
2103	0	38080	33400	33372
2104	0	38124	33360	33260
2105	0	38048	33444	33375
2106	0	38048	33536	33457
2107	0	38088	33628	33504
2108	0	38152	33588	33432
2109	0	38120	33600	33440
2110	0	38056	33604	33592
2111	0	38068	33668	33892
2112	0	38168	34040	34736
2113	0	38416	34652	35832
2114	0	38568	34540	35744
2115	0	38080	33680	35076
2116	0	37408	32824	34644
2117	0	37472	32184	34168
2118	0	38088	31924	33976
2119	0	38784	32132	33593
2120	0	39452	32820	32797
2121	0	39440	33368	32596
2122	0	38872	33588	32440
2123	0	38288	33716	32408
2124	0	37908	33612	32512
2125	0	37680	33512	32892
2126	0	37628	33476	33128
2127	0	37796	33332	33016
2128	0	37896	33452	32764
2129	0	37636	33589	32752
2130	0	37232	33652	32760
2131	0	36944	33696	33044
2132	0	36788	33509	33228
2133	0	36776	33224	33168
2134	0	36944	33081	33020
2135	0	37164	32936	32684
2136	0	37376	32877	32328
2137	0	37688	32921	32184
2138	0	37952	33080	32281
2139	0	38060	33216	32517
2140	0	38048	33280	32732
2141	0	37968	33380	32972
2142	0	37984	33512	33168
2143	0	38068	33552	33224
2144	0	38128	33532	33244
2145	0	38124	33441	33284
2146	0	38052	33336	33312
2147	0	37948	33228	33348
2148	0	37852	33124	33368
2149	0	37808	33052	33324
2150	0	37776	32996	33260
2151	0	37793	32884	33136
2152	0	37740	32652	32849
2153	0	37660	32256	32356
2154	0	37440	32192	32412
2155	0	37368	32212	32536
2156	0	37529	32296	32664
2157	0	37744	32460	32832
2158	0	37912	32524	32828
2159	0	38036	32513	32684
2160	0	37980	32696	32956
2161	0	37984	32741	32948
2162	0	37996	32864	33080
2163	0	37984	32956	33081
2164	0	38036	33049	33132
2165	0	38056	33148	33200
2166	0	38024	33320	33457
2167	0	38020	33428	33581
2168	0	38096	33424	33356
2169	0	38048	33360	33264
2170	0	37900	33396	33384
2171	0	37872	33376	33384
2172	0	37852	33437	33460
2173	0	37928	33497	33504
2174	0	38032	33520	33512
2175	0	38080	33544	33444
2176	0	38104	33508	33368
2177	0	38108	33448	33244
2178	0	38080	33376	33184
2179	0	38052	33332	33148
2180	0	38024	33292	33136
2181	0	37992	33230	33152
2182	0	38016	33188	33181
2183	0	38024	33104	33216
2184	0	38040	33024	33260
2185	0	38048	32952	33292
2186	0	38056	32896	33300
2187	0	38000	32796	33272
2188	0	37964	32224	32204
2189	0	37648	31656	31252
2190	0	37076	31838	32028
2191	0	37192	32056	32672
2192	0	37744	32332	33024
2193	0	38144	32648	33241
2194	0	38388	32872	33324
2195	0	38472	33040	33348
2196	0	38424	33129	33252
2197	0	38324	33252	33277
2198	0	38208	33420	33356
2199	0	38160	33360	33212
2200	0	38040	33456	33328
2201	0	37988	33564	33592
2202	0	38072	33508	33592
2203	0	38104	33404	33540
2204	0	38012	33356	33672
2205	0	37880	33248	34072
2206	0	38024	33092	33949
2207	0	38376	33177	33504
2208	0	38452	33296	33168
2209	0	38360	33340	32900
2210	0	38160	33252	32718
2211	0	37936	32964	32496
2212	0	37696	32576	32224
2213	0	37520	32424	32385
2214	0	37540	32432	32712
2215	0	37776	32536	32872
2216	0	38056	32640	32989
2217	0	38208	32664	32992
2218	0	38264	32780	33028
2219	0	38272	32836	33084
2220	0	38256	32886	32968
2221	0	38192	33044	33132
2222	0	38192	33121	33124
2223	0	38160	33117	33056
2224	0	38080	33288	33396
2225	0	38084	33316	33484
2226	0	38144	33352	33489
2227	0	38104	33308	33464
2228	0	38016	33348	33652
2229	0	37944	33276	33744
2230	0	37896	33236	34004
2231	0	37656	33164	34757
2232	0	37976	33104	34556
2233	0	38524	33320	34104
2234	0	38612	33544	33837
2235	0	38400	33665	33616
2236	0	38044	33684	33604
2237	0	37792	33600	33940
2238	0	37580	33280	34140
2239	0	37152	32696	33620
2240	0	36812	32276	33044
2241	0	37096	32352	32941
2242	0	37584	32416	33224
2243	0	37964	32428	33777
2244	0	38604	32752	33496
2245	0	38908	33080	33176
2246	0	38760	33352	32976
2247	0	38488	33492	32792
2248	0	38208	33512	32682
2249	0	38056	33480	32685
2250	0	37980	33408	32632
2251	0	37904	33384	32584
2252	0	37964	33392	32472
2253	0	37852	33390	32364
2254	0	37752	33440	32408
2255	0	37724	33408	32592
2256	0	37680	33326	32712
2257	0	37652	33248	32744
2258	0	37620	33188	32752
2259	0	37624	33068	32772
2260	0	37680	32944	32800
2261	0	37756	32832	32848
2262	0	37896	32764	32888
2263	0	38000	32748	32910
2264	0	38100	32724	32904
2265	0	38160	32704	32900
2266	0	38196	32684	32900
2267	0	38236	32652	32892
2268	0	38296	32612	32872
2269	0	38320	32588	32862
2270	0	38312	32564	32856
2271	0	38336	32436	32864
2272	0	38376	32412	32888
2273	0	38328	32464	32908
2274	0	38264	32480	32832
2275	0	38096	32248	32292
2276	0	37664	31740	31184
2277	0	37256	31912	31968
2278	0	37552	32132	32508
2279	0	38072	32398	32900
2280	0	38364	32640	33088
2281	0	38520	32888	33124
2282	0	38460	32996	33092
2283	0	38372	33124	33144
2284	0	38268	33256	33196
2285	0	38208	33344	33200
2286	0	38088	33352	33268
2287	0	38048	33344	33356
2288	0	38024	33304	33352
2289	0	37992	33248	33256
2290	0	37908	33192	33184
2291	0	37792	33124	33180
2292	0	37700	33020	33220
2293	0	37676	32904	33292
2294	0	37840	32856	33256
2295	0	38040	32884	33116
2296	0	38152	32916	33088
2297	0	38200	32929	33160
2298	0	38240	32944	33216
2299	0	38272	32940	33277
2300	0	38280	32952	33309
2301	0	38296	32972	33340
2302	0	38252	32984	33358
2303	0	38216	33004	33360
2304	0	38176	33012	33357
2305	0	38136	33000	33364
2306	0	38116	33004	33352
2307	0	38080	33000	33345
2308	0	38024	32976	33352
2309	0	37976	32953	33344
2310	0	37988	32884	33352
2311	0	38064	32760	33390
2312	0	38096	32816	33448
2313	0	38068	32888	33436
2314	0	37992	32988	33376
2315	0	37932	33044	33324
2316	0	37904	33108	33272
2317	0	37912	33128	33232
2318	0	37936	33136	33216
2319	0	37924	33104	33216
2320	0	37932	33088	33216
2321	0	37952	33074	33224
2322	0	37968	33068	33224
2323	0	37964	33052	33240
2324	0	37984	33012	33248
2325	0	37980	32992	33228
2326	0	37960	32988	33204
2327	0	37896	32817	32992
2328	0	37712	32540	32380
2329	0	37625	32684	32924
2330	0	37936	32788	33336
2331	0	38268	33012	33512
2332	0	38476	33156	33492
2333	0	38536	33249	33488
2334	0	38456	33300	33400
2335	0	38284	33304	33328
2336	0	38120	33268	33248
2337	0	37952	33225	33184
2338	0	37796	33136	33184
2339	0	37520	33072	33454
2340	0	37408	32832	33432
2341	0	37788	32848	33088
2342	0	37992	32944	32824
2343	0	37956	33068	32732
2344	0	37812	33064	32800
2345	0	37680	32988	32876
2346	0	37656	32896	32928
2347	0	37640	32848	32936
2348	0	37664	32784	32920
2349	0	37760	32729	32916
2350	0	37824	32700	32924
2351	0	37864	32688	32933
2352	0	37860	32664	32921
2353	0	37800	32596	32868
2354	0	37616	32396	32465
2355	0	37476	32077	32260
2356	0	37688	32060	32648
2357	0	38052	32305	33018
2358	0	38304	32524	33232
2359	0	38416	32728	33205
2360	0	38416	32924	33140
2361	0	38332	33028	33064
2362	0	38176	33044	32960
2363	0	38028	33004	32917
2364	0	37868	32944	32956
2365	0	37632	32820	33348
2366	0	37512	32576	33388
2367	0	37992	32644	32920
2368	0	38092	32820	32608
2369	0	37981	32948	32484
2370	0	37736	32961	32560
2371	0	37576	32868	32684
2372	0	37520	32688	32764
2373	0	37544	32540	32800
2374	0	37680	32456	32840
2375	0	37804	32448	32872
2376	0	37900	32485	32912
2377	0	37968	32552	32920
2378	0	38016	32600	32941
2379	0	38056	32660	32948
2380	0	38056	32708	32956
2381	0	38040	32750	32952
2382	0	38020	32796	32948
2383	0	38016	32840	32952
2384	0	38000	32865	32944
2385	0	37976	32880	32968
2386	0	37940	32888	32988
2387	0	37916	32892	33020
2388	0	37880	32904	33028
2389	0	37872	32908	33052
2390	0	37864	32904	33060
2391	0	37872	32904	33096
2392	0	37856	32901	33092
2393	0	37848	32908	33120
2394	0	37840	32928	33140
2395	0	37836	32936	33152
2396	0	37844	32928	33160
2397	0	37840	32932	33160
2398	0	37852	32932	33160
2399	0	37856	32920	33168
2400	0	37864	32936	33160
2401	0	37872	32932	33164
2402	0	37856	32928	33168
2403	0	37888	32924	33168
2404	0	37912	32932	33160
2405	0	37920	32928	33160
2406	0	37924	32920	33156
2407	0	37912	32916	33145
2408	0	37916	32924	33136
2409	0	37888	32900	33126
2410	0	37916	32898	33116
2411	0	37944	32884	33112
2412	0	37944	32884	33120
2413	0	37928	32876	33100
2414	0	37884	32860	33088
2415	0	37880	32832	33088
2416	0	37876	32805	33104
2417	0	37864	32812	33080
2418	0	37848	32820	33072
2419	0	37828	32820	33080
2420	0	37808	32840	33080
2421	0	37796	32864	33052
2422	0	37804	32856	33069
2423	0	37824	32856	33064
2424	0	37848	32864	33056
2425	0	37840	32860	33048
2426	0	37840	32847	33056
2427	0	37832	32840	33038
2428	0	37872	32844	33012
2429	0	37876	32832	33008
2430	0	37876	32808	33016
2431	0	37880	32804	32996
2432	0	37888	32792	32992
2433	0	37893	32780	32992
2434	0	37888	32780	32972
2435	0	37876	32772	32956
2436	0	37892	32760	32960
2437	0	37892	32744	32964
2438	0	37904	32740	32953
2439	0	37936	32708	32960
2440	0	37956	32684	32972
2441	0	37984	32652	32973
2442	0	38001	32644	32956
2443	0	37992	32624	32944
2444	0	38008	32600	32949
2445	0	38012	32572	32944
2446	0	38032	32564	32936
2447	0	38048	32560	32933
2448	0	38072	32584	32912
2449	0	38080	32585	32904
2450	0	38100	32584	32896
2451	0	38112	32608	32896
2452	0	38132	32616	32900
2453	0	38128	32629	32893
2454	0	38120	32656	32888
2455	0	38100	32668	32904
2456	0	38096	32684	32917
2457	0	38100	32696	32928
2458	0	38100	32696	32956
2459	0	38096	32728	32968
2460	0	38084	32764	32992
2461	0	38056	32780	33016
2462	0	38068	32796	33040
2463	0	38064	32804	33060
2464	0	38044	32828	33085
2465	0	38024	32860	33100
2466	0	37988	32876	33116
2467	0	37992	32900	33128
2468	0	38004	32876	33144
2469	0	37993	32872	33148
2470	0	37984	32864	33149
2471	0	38004	32864	33156
2472	0	38000	32856	33168
2473	0	38000	32852	33169
2474	0	38000	32856	33176
2475	0	38008	32844	33160
2476	0	38020	32868	33156
2477	0	38016	32864	33160
2478	0	38020	32876	33157
2479	0	38040	32868	33160
2480	0	38032	32864	33164
2481	0	38032	32856	33152
2482	0	38016	32860	33148
2483	0	38032	32860	33144
2484	0	38032	32864	33128
2485	0	38008	32856	33136
2486	0	37988	32852	33136
2487	0	37980	32837	33140
2488	0	37960	32828	33140
2489	0	37960	32836	33140
2490	0	37956	32848	33132
2491	0	37928	32840	33140
2492	0	37936	32849	33124
2493	0	37916	32848	33125
2494	0	37912	32852	33124
2495	0	37904	32868	33104
2496	0	37888	32860	33104
2497	0	37872	32864	33116
2498	0	37884	32876	33100
2499	0	37872	32868	33092
2500	0	37848	32864	33092
2501	0	37832	32856	33084
2502	0	37848	32852	33076
2503	0	37808	32852	33068
2504	0	37808	32832	33064
2505	0	37824	32833	33056
2506	0	37816	32820	33056
2507	0	37800	32796	33032
2508	0	37784	32788	33024
2509	0	37768	32780	33016
2510	0	37756	32769	33004
2511	0	37760	32760	33000
2512	0	37756	32740	33008
2513	0	37776	32736	32984
2514	0	37788	32736	32976
2515	0	37800	32740	32968
2516	0	37792	32752	32964
2517	0	37788	32764	32968
2518	0	37784	32788	32964
2519	0	37792	32796	32972
2520	0	37784	32812	32976
2521	0	37768	32840	32968
2522	0	37772	32860	32964
2523	0	37768	32865	32972
2524	0	37784	32881	32973
2525	0	37776	32888	32981
2526	0	37748	32928	32936
2527	0	37656	32972	32920
2528	0	37716	32968	32940
2529	0	37696	32940	32936
2530	0	37656	32904	32952
2531	0	37672	32896	32968
2532	0	37672	32896	33021
2533	0	37704	32892	32992
2534	0	37752	32900	33016
2535	0	37768	32910	32992
2536	0	37768	32904	33008
2537	0	37788	32884	33000
2538	0	37840	32881	33008
2539	0	37848	32896	33024
2540	0	37904	32912	33040
2541	0	37920	32924	33080
2542	0	37936	32928	33057
2543	0	37936	32942	33076
2544	0	37972	32952	33074
2545	0	37940	32956	33048
2546	0	37952	32940	33064
2547	0	37984	32944	33084
2548	0	38008	32968	33124
2549	0	38044	32980	33124
2550	0	38048	33028	33188
2551	0	38080	33048	33161
2552	0	38040	33076	33136
2553	0	38012	33064	33136
2554	0	38032	33068	33160
2555	0	38044	33072	33140
2556	0	38012	33096	33152
2557	0	38004	33080	33168
2558	0	37972	33108	33172
2559	0	37984	33128	33180
2560	0	37992	33148	33164
2561	0	37972	33152	33160
2562	0	37924	33148	33152
2563	0	37912	33176	33197
2564	0	37864	33166	33168
2565	0	37784	33164	33168
2566	0	37824	33180	33216
2567	0	37880	33192	33216
2568	0	37840	33208	33184
2569	0	37844	33208	33216
2570	0	37824	33176	33148
2571	0	37812	33176	33184
2572	0	37856	33164	33176
2573	0	37888	33152	33152
2574	0	37868	33136	33104
2575	0	37844	33116	33108
2576	0	37816	33068	33088
2577	0	37792	33044	33072
2578	0	37832	33044	33064
2579	0	37836	33000	33052
2580	0	37824	32952	32992
2581	0	37824	32872	32944
2582	0	37832	32852	32980
2583	0	37824	32836	32960
2584	0	37784	32804	32916
2585	0	37776	32820	32916
2586	0	37792	32788	32888
2587	0	37816	32772	32856
2588	0	37824	32767	32861
2589	0	37820	32780	32888
2590	0	37792	32780	32868
2591	0	37768	32776	32872
2592	0	37800	32764	32880
2593	0	37816	32772	32896
2594	0	37784	32756	32868
2595	0	37792	32756	32864
2596	0	37800	32752	32864
2597	0	37792	32736	32836
2598	0	37824	32736	32796
2599	0	37872	32800	32812
2600	0	37896	32792	32844
2601	0	37868	32812	32876
2602	0	37856	32836	32892
2603	0	37864	32884	32886
2604	0	37860	32896	32912
2605	0	37876	32896	32920
2606	0	37888	32880	32912
2607	0	37912	32856	32936
2608	0	37912	32828	32960
2609	0	37896	32816	32960
2610	0	37888	32808	32964
2611	0	37848	32808	32960
2612	0	37812	32828	32944
2613	0	37800	32836	32948
2614	0	37800	32844	32960
2615	0	37804	32840	32960
2616	0	37812	32832	32960
2617	0	37828	32828	32984
2618	0	37840	32832	32984
2619	0	37848	32852	32988
2620	0	37856	32868	32984
2621	0	37864	32884	32988
2622	0	37864	32904	32984
2623	0	37852	32920	32976
2624	0	37832	32944	32983
2625	0	37832	32960	32972
2626	0	37820	32968	32972
2627	0	37808	32988	32976
2628	0	37808	33020	32976
2629	0	37840	33032	32985
2630	0	37836	33040	32988
2631	0	37824	33052	32988
2632	0	37824	33056	32980
2633	0	37852	33068	32992
2634	0	37856	33064	32993
2635	0	37864	33048	33016
2636	0	37904	33040	33020
2637	0	37904	33028	33024
2638	0	37880	33025	33025
2639	0	37896	33020	33012
2640	0	37884	33034	33012
2641	0	37912	33028	33024
2642	0	37920	33016	33052
2643	0	37920	33037	33032
2644	0	37920	33028	33024
2645	0	37920	33024	33034
2646	0	37935	33012	33052
2647	0	37956	33048	33024
2648	0	37940	33052	33032
2649	0	37948	33072	33052
2650	0	37872	33064	33044
2651	0	37900	33112	33032
2652	0	37916	33120	33056
2653	0	37900	33109	33064
2654	0	37872	33132	33064
2655	0	37896	33136	33052
2656	0	37880	33160	33044
2657	0	37836	33176	33060
2658	0	37792	33180	33096
2659	0	37816	33204	33100
2660	0	37864	33216	33104
2661	0	37860	33242	33041
2662	0	37808	33264	33028
2663	0	37784	33257	33064
2664	0	37773	33244	33104
2665	0	37824	33244	33092
2666	0	37800	33240	33088
2667	0	37788	33244	33064
2668	0	37760	33260	32988
2669	0	37756	33240	32968
2670	0	37812	33212	33048
2671	0	37840	33181	33096
2672	0	37792	33152	33200
2673	0	37808	33136	33228
2674	0	37828	33168	33180
2675	0	37836	33184	33080
2676	0	37792	33172	33060
2677	0	37780	33168	33032
2678	0	37760	33148	33012
2679	0	37720	33156	32980
2680	0	37712	33140	32956
2681	0	37744	33132	32972
2682	0	37776	33092	32984
2683	0	37756	33068	32953
2684	0	37744	33044	32948
2685	0	37736	33024	32964
2686	0	37764	33008	33024
2687	0	37788	33009	33025
2688	0	37808	33012	33008
2689	0	37824	33012	33056
2690	0	37818	33036	33052
2691	0	37808	33052	33144
2692	0	37829	33028	33184
2693	0	37824	33072	33192
2694	0	37800	33117	33156
2695	0	37776	33120	33145
2696	0	37792	33144	33096
2697	0	37792	33172	33036
2698	0	37760	33156	33028
2699	0	37752	33153	32958
2700	0	37728	33144	33000
2701	0	37704	33148	33016
2702	0	37720	33136	33056
2703	0	37780	33124	33089
2704	0	37824	33116	33092
2705	0	37848	33108	33112
2706	0	37920	33088	33132
2707	0	37924	33068	33132
2708	0	37864	33044	33160
2709	0	37880	33040	33416
2710	0	37992	33060	33780
2711	0	38096	33100	33928
2712	0	38152	33280	34172
2713	0	38148	33405	34116
2714	0	38309	33760	33940
2715	0	38388	33332	33488
2716	0	38264	32640	32868
2717	0	38112	32484	32492
2718	0	38112	32584	32472
2719	0	38212	32580	32588
2720	0	38316	32536	32576
2721	0	38360	32740	32704
2722	0	38401	32936	32900
2723	0	38412	33040	32992
2724	0	38324	33136	33044
2725	0	38272	33236	33136
2726	0	38188	33296	33169
2727	0	38076	33260	33144
2728	0	37984	33218	33212
2729	0	37928	33212	33188
2730	0	37864	33240	33244
2731	0	37856	33169	33200
2732	0	37840	33064	33142
2733	0	37876	32920	33121
2734	0	37940	32960	33156
2735	0	37988	33088	33189
2736	0	38072	33124	33184
2737	0	38152	33048	33100
2738	0	38180	33022	32996
2739	0	38212	33040	33052
2740	0	38240	32968	33112
2741	0	38240	32910	33160
2742	0	38248	32908	33202
2743	0	38236	32896	33328
2744	0	38169	32860	33305
2745	0	38140	32796	33232
2746	0	38112	32824	33220
2747	0	38132	32880	33304
2748	0	38152	32896	33380
2749	0	38100	32824	33380
2750	0	38008	32840	33332
2751	0	37992	32852	33260
2752	0	38072	32932	33344
2753	0	38112	32944	33412
2754	0	38072	32836	33252
2755	0	38068	32808	33160
2756	0	38052	32912	33200
2757	0	38068	32952	33160
2758	0	38120	33004	33284
2759	0	38140	32896	33344
2760	0	38152	32864	33429
2761	0	38092	32928	33444
2762	0	38096	32932	33352
2763	0	38088	32924	33352
2764	0	38048	32900	33276
2765	0	38052	32840	33136
2766	0	38028	32832	33080
2767	0	38120	32784	33096
2768	0	38128	32728	33168
2769	0	38048	32684	33028
2770	0	38032	32716	33056
2771	0	38080	32732	33080
2772	0	38092	32764	33124
2773	0	38112	32732	33048
2774	0	38136	32744	33184
2775	0	38044	32688	33192
2776	0	38020	32636	33144
2777	0	37940	32604	32920
2778	0	38016	32680	33036
2779	0	37968	32740	33020
2780	0	38008	32801	32992
2781	0	38004	32773	33072
2782	0	38040	32676	33124
2783	0	38081	32612	33061
2784	0	38124	32584	33136
2785	0	38112	32789	33220
2786	0	38080	32840	33156
2787	0	38064	32752	32964
2788	0	38072	32828	32912
2789	0	38176	32732	33088
2790	0	38144	32556	32932
2791	0	38144	32656	32834
2792	0	38148	32760	32908
2793	0	38184	32573	32990
2794	0	38136	32608	32928
2795	0	38184	32472	33132
2796	0	38157	32620	33184
2797	0	38144	32656	33144
2798	0	38124	32824	32972
2799	0	38144	32924	33020
2800	0	38176	32808	33080
2801	0	38192	32628	33144
2802	0	38200	32812	33216
2803	0	38232	32584	33240
2804	0	38248	32512	33176
2805	0	38264	32448	33276
2806	0	38196	32544	33220
2807	0	38264	32538	33124
2808	0	38216	32696	33228
2809	0	38232	32664	33312
2810	0	38168	32680	33400
2811	0	38164	32656	33336
2812	0	38112	32744	33256
2813	0	38136	32624	33185
2814	0	38184	32472	33124
2815	0	38060	32584	33116
2816	0	38072	32500	33148
2817	0	38056	32592	33160
2818	0	38088	32588	33309
2819	0	37992	32772	33224
2820	0	38016	32832	33216
2821	0	37968	32737	33072
2822	0	38000	32636	33232
2823	0	37944	32736	33085
2824	0	37912	32808	33037
2825	0	37928	32692	33036
2826	0	37964	32816	32956
2827	0	37872	32864	32937
2828	0	37964	32654	32944
2829	0	37944	32460	33036
2830	0	37920	32777	33076
2831	0	37884	32776	32988
2832	0	37944	32520	32916
2833	0	37928	32576	32904
2834	0	37896	32640	32864
2835	0	37932	32548	33036
2836	0	37944	32416	33136
2837	0	37940	32644	33160
2838	0	38000	32656	33164
2839	0	38012	32766	33112
2840	0	37988	32648	33188
2841	0	37924	32687	33196
2842	0	37920	32692	33148
2843	0	37952	32576	33094
2844	0	37956	32712	33128
2845	0	37936	32748	33148
2846	0	37992	32584	33264
2847	0	38064	32416	33360
2848	0	38144	32464	33236
2849	0	38024	32644	33124
2850	0	38208	32400	33424
2851	0	37996	32884	33360
2852	0	37704	33164	33376
2853	0	37404	33404	33280
2854	0	37364	33436	33141
2855	0	37564	33184	33288
2856	0	37772	33128	33157
2857	0	37696	33245	33044
2858	0	37480	33480	33144
2859	0	37576	33356	33144
2860	0	37568	33380	33140
2861	0	37632	33440	33236
2862	0	37584	33356	33052
2863	0	37520	33328	32924
2864	0	37540	33016	33116
2865	0	37616	32756	32988
2866	0	37696	32680	33020
2867	0	37728	32776	33092
2868	0	37744	32829	33148
2869	0	37732	32800	33156
2870	0	37792	32900	33308
2871	0	37784	32924	33256
2872	0	37808	32916	33204
2873	0	37856	32872	33264
2874	0	37892	32796	33192
2875	0	37944	32760	33164
2876	0	37992	32840	33172
2877	0	38020	32936	33313
2878	0	38080	32868	33244
2879	0	38056	32729	33252
2880	0	38032	32764	33096
2881	0	38016	32656	33065
2882	0	37992	32684	33012
2883	0	37992	32716	32996
2884	0	37976	32720	33016
2885	0	37940	32728	33092
2886	0	37936	32656	33276
2887	0	37976	32648	33289
2888	0	37920	32648	33352
2889	0	37940	32712	33440
2890	0	37940	32764	33376
2891	0	37880	32908	33160
2892	0	37856	32824	33032
2893	0	37828	32798	32972
2894	0	37828	32748	32920
2895	0	37860	32744	32976
2896	0	37908	32692	33096
2897	0	37968	32656	33220
2898	0	37956	32708	33237
2899	0	37936	32744	33192
2900	0	37912	32824	33176
2901	0	37852	32766	33216
2902	0	37880	32685	33256
2903	0	37888	32740	33260
2904	0	37920	32688	33264
2905	0	37932	32744	33268
2906	0	37952	32648	33248
2907	0	37928	32592	33276
2908	0	37936	32656	33284
2909	0	37984	32604	33272
2910	0	38020	32644	33216
2911	0	38016	32600	33172
2912	0	37992	32624	33060
2913	0	37969	32548	33045
2914	0	37952	32420	32985
2915	0	38000	32468	32944
2916	0	38100	32572	33024
2917	0	38204	32385	33176
2918	0	38296	32396	33168
2919	0	38240	32544	33180
2920	0	38256	32616	33340
2921	0	38216	32664	33288
2922	0	38136	32600	33262
2923	0	38144	32592	33268
2924	0	38132	32632	33184
2925	0	38008	32669	33036
2926	0	37910	32696	33024
2927	0	37900	32532	32996
2928	0	37968	32520	32976
2929	0	37916	32504	32980
2930	0	37912	32536	33088
2931	0	37804	32460	33072
2932	0	37728	32436	33016
2933	0	37768	32400	33016
2934	0	37840	32332	33100
2935	0	37900	32292	33188
2936	0	37976	32336	33260
2937	0	37956	32464	33213
2938	0	37888	32448	33185
2939	0	37904	32428	33196
2940	0	37872	32484	33121
2941	0	37848	32532	33076
2942	0	37824	32408	33040
2943	0	37788	32340	33068
2944	0	37736	32333	33004
2945	0	37704	32352	33044
2946	0	37720	32388	33028
2947	0	37696	32304	32976
2948	0	37680	32316	33016
2949	0	37708	32444	33152
2950	0	37748	32476	33272
2951	0	37744	32484	33324
2952	0	37768	32488	33420
2953	0	37764	32472	33488
2954	0	37736	32568	33448
2955	0	37720	32540	33388
2956	0	37700	32536	33288
2957	0	37676	32572	33112
2958	0	37696	32584	33092
2959	0	37712	32556	33036
2960	0	37720	32516	32988
2961	0	37728	32516	32992
2962	0	37772	32476	33080
2963	0	37780	32440	33044
2964	0	37852	32424	33144
2965	0	37848	32472	33160
2966	0	37824	32504	33128
2967	0	37856	32480	33096
2968	0	37912	32448	33124
2969	0	37956	32477	33168
2970	0	37980	32560	33172
2971	0	38072	32616	33216
2972	0	38128	32632	33264
2973	0	38152	32648	33272
2974	0	38144	32608	33180
2975	0	38140	32568	33177
2976	0	38152	32548	33180
2977	0	38232	32544	33237
2978	0	38288	32536	33254
2979	0	38320	32504	33212
2980	0	38348	32540	33220
2981	0	38368	32564	33188
2982	0	38344	32628	33112
2983	0	38296	32712	33057
2984	0	38244	32740	33032
2985	0	38144	32677	33016
2986	0	38028	32600	33012
2987	0	37996	32576	33000
2988	0	37984	32568	33008
2989	0	37953	32505	33048
2990	0	37964	32476	33068
2991	0	37960	32524	33084
2992	0	38008	32528	33104
2993	0	38032	32572	33088
2994	0	38016	32612	33084
2995	0	38056	32616	33100
2996	0	38080	32604	33148
2997	0	38120	32592	33160
2998	0	38152	32504	33232
2999	0	38160	32465	33285
3000	0	38200	32476	33392
3001	0	38264	32480	33472
3002	0	38312	32480	33576
3003	0	38316	32556	33764
3004	0	38344	32584	33837
3005	0	38368	32660	33756
3006	0	38292	32756	33464
3007	0	38144	32808	33096
3008	0	37968	32786	32732
3009	0	37876	32600	32561
3010	0	37904	32377	32584
3011	0	37920	32252	32624
3012	0	37904	32328	32624
3013	0	37888	32377	32716
3014	0	37856	32472	32836
3015	0	37844	32476	32956
3016	0	37844	32452	33100
3017	0	37824	32456	33128
3018	0	37792	32416	33188
3019	0	37784	32408	33152
3020	0	37812	32464	33148
3021	0	37784	32500	33104
3022	0	37768	32532	33048
3023	0	37768	32600	33040
3024	0	37788	32608	33104
3025	0	37832	32581	33184
3026	0	37832	32548	33244
3027	0	37808	32524	33276
3028	0	37824	32496	33296
3029	0	37812	32554	33312
3030	0	37776	32528	33296
3031	0	37792	32488	33248
3032	0	37800	32448	33224
3033	0	37812	32432	33188
3034	0	37824	32440	33176
3035	0	37832	32464	33148
3036	0	37824	32448	33108
3037	0	37864	32429	33060
3038	0	37908	32416	33058
3039	0	37884	32420	33044
3040	0	37864	32429	33032
3041	0	37880	32380	33004
3042	0	37908	32368	33008
3043	0	37932	32380	33016
3044	0	37944	32400	32997
3045	0	37960	32376	32988
3046	0	37984	32388	32992
3047	0	37992	32414	32997
3048	0	37964	32436	32992
3049	0	37944	32420	32986
3050	0	37936	32416	32988
3051	0	37928	32444	33004
3052	0	37928	32424	33008
3053	0	37944	32388	32998
3054	0	37952	32396	33017
3055	0	37920	32412	33020
3056	0	37920	32412	33021
3057	0	37912	32372	33016
3058	0	37896	32392	33040
3059	0	37880	32408	33076
3060	0	37872	32416	33096
3061	0	37876	32412	33112
3062	0	37852	32424	33128
3063	0	37860	32436	33162
3064	0	37848	32472	33176
3065	0	37848	32480	33184
3066	0	37808	32478	33196
3067	0	37808	32508	33196
3068	0	37808	32520	33220
3069	0	37816	32524	33220
3070	0	37824	32560	33228
3071	0	37820	32548	33228
3072	0	37812	32556	33220
3073	0	37808	32572	33232
3074	0	37812	32564	33208
3075	0	37840	32572	33192
3076	0	37848	32572	33184
3077	0	37868	32576	33180
3078	0	37888	32557	33181
3079	0	37908	32564	33184
3080	0	37920	32584	33152
3081	0	37948	32560	33136
3082	0	37976	32556	33120
3083	0	38016	32552	33108
3084	0	38012	32560	33080
3085	0	38000	32540	33060
3086	0	38024	32520	33028
3087	0	38040	32524	33016
3088	0	38068	32524	33004
3089	0	38072	32508	32992
3090	0	38060	32510	32972
3091	0	38016	32504	32964
3092	0	38004	32488	32960
3093	0	37992	32493	32962
3094	0	37996	32480	32952
3095	0	38000	32524	32964
3096	0	37984	32520	32980
3097	0	37984	32532	32968
3098	0	38012	32528	32960
3099	0	38000	32532	32964
3100	0	38000	32556	32952
3101	0	37976	32560	32976
3102	0	37968	32552	32984
3103	0	37956	32560	32980
3104	0	37968	32536	33000
3105	0	37972	32520	33008
3106	0	37972	32528	33024
3107	0	37984	32505	33020
3108	0	38008	32520	33016
3109	0	37992	32516	33016
3110	0	38012	32516	33024
3111	0	38008	32493	33036
3112	0	37992	32505	33036
3113	0	37972	32520	33061
3114	0	37960	32520	33048
3115	0	37960	32540	33056
3116	0	37976	32544	33052
3117	0	37984	32556	33054
3118	0	37976	32536	33068
3119	0	37984	32544	33070
3120	0	37976	32528	33076
3121	0	38000	32548	33064
3122	0	38012	32552	33068
3123	0	37988	32524	33049
3124	0	37997	32528	33016
3125	0	37988	32512	33016
3126	0	37964	32508	33016
3127	0	37984	32504	33012
3128	0	37984	32480	33000
3129	0	38000	32484	33012
3130	0	37996	32480	33008
3131	0	37977	32480	32989
3132	0	37944	32464	32984
3133	0	37952	32468	32996
3134	0	37936	32476	32976
3135	0	37944	32456	32968
3136	0	37936	32456	32948
3137	0	37992	32452	32948
3138	0	37980	32481	32928
3139	0	37984	32472	32944
3140	0	37980	32472	32952
3141	0	37984	32476	32948
3142	0	38000	32464	32952
3143	0	37992	32469	32956
3144	0	38004	32457	32956
3145	0	37992	32480	32948
3146	0	38016	32496	32956
3147	0	38012	32481	32948
3148	0	37996	32468	32948
3149	0	38000	32469	32960
3150	0	38024	32460	32964
3151	0	38032	32471	32968
3152	0	38044	32456	32964
3153	0	38016	32452	32968
3154	0	38024	32457	32953
3155	0	38032	32440	32940
3156	0	38044	32424	32940
3157	0	38060	32412	32936
3158	0	38064	32400	32940
3159	0	38084	32364	32964
3160	0	38128	32348	32972
3161	0	38176	32336	33012
3162	0	38200	32313	33036
3163	0	38220	32300	33069
3164	0	38208	32368	33080
3165	0	38136	32432	33024
3166	0	38096	32488	32984
3167	0	38044	32508	32996
3168	0	38000	32524	32977
3169	0	37956	32536	32960
3170	0	37936	32560	32976
3171	0	37912	32600	32960
3172	0	37864	32612	32972
3173	0	37844	32608	32997
3174	0	37824	32648	33000
3175	0	37816	32652	32984
3176	0	37816	32656	32977
3177	0	37832	32664	32952
3178	0	37868	32649	32973
3179	0	37876	32664	32960
3180	0	37872	32656	32952
3181	0	37860	32640	32961
3182	0	37853	32640	32940
3183	0	37864	32632	32928
3184	0	37884	32616	32920
3185	0	37900	32604	32916
3186	0	37904	32596	32912
3187	0	37936	32580	32920
3188	0	37960	32564	32940
3189	0	37956	32556	32948
3190	0	37976	32572	32948
3191	0	37996	32564	32972
3192	0	38000	32572	32980
3193	0	38016	32576	33004
3194	0	38032	32576	33000
3195	0	38028	32564	33004
3196	0	38040	32568	32996
3197	0	38068	32564	33000
3198	0	38096	32576	33000
3199	0	38080	32570	33004
3200	0	38088	32556	33017
3201	0	38072	32560	32992
3202	0	38088	32552	32992
3203	0	38080	32541	32984
3204	0	38068	32544	32964
3205	0	38064	32536	32972
3206	0	38056	32528	32976
3207	0	38056	32520	32972
3208	0	38088	32528	32972
3209	0	38088	32520	32972
3210	0	38080	32512	32964
3211	0	38068	32516	32964
3212	0	38060	32512	32960
3213	0	38024	32516	32965
3214	0	38016	32508	32976
3215	0	38000	32500	32968
3216	0	37976	32528	32952
3217	0	37968	32536	32961
3218	0	37960	32548	32960
3219	0	37968	32544	32957
3220	0	37952	32528	32968
3221	0	37944	32532	32984
3222	0	37952	32536	32960
3223	0	37960	32544	32968
3224	0	37960	32524	32964
3225	0	37968	32516	32964
3226	0	37952	32508	32956
3227	0	37952	32456	32960
3228	0	37964	32409	32977
3229	0	38000	32360	33000
3230	0	38020	32312	33036
3231	0	38020	32296	33072
3232	0	38012	32284	33088
3233	0	37992	32340	33076
3234	0	37976	32372	33060
3235	0	37936	32416	32980
3236	0	37912	32444	32884
3237	0	37888	32477	32808
3238	0	37880	32488	32768
3239	0	37860	32496	32764
3240	0	37872	32477	32802
3241	0	37888	32496	32876
3242	0	37908	32504	32889
3243	0	37944	32488	32972
3244	0	37960	32472	33028
3245	0	37980	32480	32984
3246	0	38024	32508	33084
3247	0	38080	32549	33116
3248	0	38128	32633	33113
3249	0	38200	32760	33168
3250	0	38352	32956	33244
3251	0	38528	33116	33352
3252	0	38544	32896	33184
3253	0	38392	32600	32936
3254	0	38112	32400	32609
3255	0	37840	32336	32328
3256	0	37696	32280	32184
3257	0	37656	32205	32136
3258	0	37672	32036	32153
3259	0	37776	31960	32264
3260	0	37856	31944	32445
3261	0	37908	31996	32624
3262	0	37880	32060	32696
3263	0	37860	32120	32800
3264	0	37832	32164	32872
3265	0	37820	32252	32940
3266	0	37812	32356	32940
3267	0	37816	32416	32972
3268	0	37840	32460	33028
3269	0	37868	32528	33052
3270	0	37936	32568	33092
3271	0	37988	32592	33152
3272	0	38036	32648	33209
3273	0	38052	32588	33228
3274	0	38116	32600	33212
3275	0	38120	32652	33149
3276	0	38136	32608	33049
3277	0	38128	32636	32928
3278	0	38104	32616	32868
3279	0	38160	32560	32764
3280	0	38208	32472	32712
3281	0	38280	32408	32712
3282	0	38344	32388	32704
3283	0	38352	32400	32712
3284	0	38336	32420	32730
3285	0	38256	32388	32720
3286	0	38152	32372	32732
3287	0	38032	32415	32760
3288	0	37920	32428	32796
3289	0	37792	32464	32832
3290	0	37712	32428	32852
3291	0	37648	32444	32897
3292	0	37608	32476	32937
3293	0	37620	32464	32956
3294	0	37632	32504	32956
3295	0	37640	32484	32956
3296	0	37680	32500	32948
3297	0	37744	32524	32956
3298	0	37824	32548	32932
3299	0	37860	32572	32932
3300	0	37896	32542	32920
3301	0	37952	32504	32920
3302	0	38024	32468	32950
3303	0	38064	32452	32984
3304	0	38096	32428	33004
3305	0	38136	32416	33000
3306	0	38132	32448	33004
3307	0	38148	32424	33076
3308	0	38164	32436	33132
3309	0	38172	32504	33196
3310	0	38192	32544	33296
3311	0	38264	32664	33376
3312	0	38384	32932	33484
3313	0	38520	33252	33580
3314	0	38584	33364	33520
3315	0	38492	33220	33196
3316	0	38244	32928	32864
3317	0	37992	32624	32544
3318	0	37860	32436	32424
3319	0	37816	32284	32340
3320	0	37788	32168	32292
3321	0	37812	32132	32352
3322	0	37840	32109	32464
3323	0	37876	32105	32588
3324	0	37864	32160	32676
3325	0	37836	32216	32712
3326	0	37800	32268	32738
3327	0	37788	32288	32772
3328	0	37768	32320	32788
3329	0	37792	32352	32824
3330	0	37824	32350	32892
3331	0	37884	32376	32960
3332	0	37936	32396	33016
3333	0	38008	32428	33056
3334	0	38056	32493	33088
3335	0	38096	32497	33072
3336	0	38104	32472	33044
3337	0	38100	32460	33020
3338	0	38088	32456	32972
3339	0	38072	32424	32908
3340	0	38072	32392	32872
3341	0	38088	32348	32844
3342	0	38092	32376	32824
3343	0	38080	32388	32800
3344	0	38056	32380	32745
3345	0	38032	32364	32704
3346	0	38024	32384	32704
3347	0	38008	32420	32724
3348	0	38008	32412	32729
3349	0	38012	32420	32732
3350	0	38000	32424	32732
3351	0	37992	32421	32756
3352	0	37992	32424	32776
3353	0	37984	32436	32813
3354	0	37996	32416	32820
3355	0	37976	32428	32817
3356	0	37968	32424	32812
3357	0	37976	32424	32816
3358	0	37952	32416	32800
3359	0	37952	32436	32804
3360	0	37952	32424	32812
3361	0	37972	32412	32824
3362	0	37964	32432	32824
3363	0	37948	32412	32812
3364	0	37932	32415	32821
3365	0	37968	32428	32836
3366	0	38000	32440	32836
3367	0	37960	32428	32842
3368	0	37956	32412	32836
3369	0	37960	32412	32852
3370	0	37968	32432	32840
3371	0	37992	32436	32844
3372	0	37980	32412	32828
3373	0	37968	32420	32824
3374	0	37960	32441	32832
3375	0	37968	32428	32840
3376	0	37976	32424	32821
3377	0	37964	32436	32824
3378	0	37984	32444	32828
3379	0	37972	32436	32832
3380	0	37960	32424	32816
3381	0	37952	32452	32840
3382	0	37928	32429	32840
3383	0	37928	32424	32824
3384	0	37936	32449	32856
3385	0	37928	32464	32868
3386	0	37916	32440	32856
3387	0	37920	32432	32844
3388	0	37928	32485	32872
3389	0	37944	32500	32888
3390	0	37968	32480	32880
3391	0	37952	32484	32888
3392	0	37956	32504	32904
3393	0	37984	32508	32904
3394	0	37980	32492	32892
3395	0	37980	32481	32904
3396	0	37960	32492	32924
3397	0	37956	32472	32912
3398	0	37960	32464	32905
3399	0	37972	32473	32928
3400	0	37952	32473	32904
3401	0	37920	32472	32896
3402	0	37912	32484	32872
3403	0	37912	32472	32892
3404	0	37916	32452	32880
3405	0	37928	32469	32872
3406	0	37936	32480	32872
3407	0	37932	32476	32865
3408	0	37952	32472	32844
3409	0	37924	32504	32861
3410	0	37900	32508	32852
3411	0	37892	32508	32856
3412	0	37912	32492	32860
3413	0	37960	32528	32876
3414	0	37952	32564	32872
3415	0	37920	32545	32852
3416	0	37920	32536	32844
3417	0	37908	32528	32832
3418	0	37920	32540	32832
3419	0	37908	32528	32836
3420	0	37912	32488	32844
3421	0	37912	32476	32840
3422	0	37932	32440	32840
3423	0	37936	32408	32830
3424	0	37948	32444	32852
3425	0	37960	32400	32852
3426	0	37940	32408	32856
3427	0	37948	32416	32868
3428	0	37916	32444	32844
3429	0	37920	32444	32824
3430	0	37928	32416	32836
3431	0	37924	32420	32840
3432	0	37920	32432	32844
3433	0	37944	32416	32828
3434	0	37940	32432	32860
3435	0	37916	32412	32864
3436	0	37912	32444	32876
3437	0	37892	32464	32856
3438	0	37892	32440	32852
3439	0	37896	32420	32876
3440	0	37952	32440	32958
3441	0	38016	32480	33068
3442	0	38096	32549	33192
3443	0	38228	32688	33396
3444	0	38496	33152	33688
3445	0	38864	33832	33896
3446	0	38932	33629	33600
3447	0	38588	33144	33060
3448	0	38072	32812	32504
3449	0	37696	32484	32132
3450	0	37520	32260	31884
3451	0	37460	32044	31824
3452	0	37532	31884	31900
3453	0	37628	31822	32068
3454	0	37708	31776	32268
3455	0	37760	31853	32434
3456	0	37752	31968	32552
3457	0	37720	32078	32664
3458	0	37664	32160	32680
3459	0	37672	32136	32672
3460	0	37688	32164	32708
3461	0	37692	32228	32776
3462	0	37752	32308	32848
3463	0	37824	32360	32904
3464	0	37882	32376	32936
3465	0	37952	32388	32970
3466	0	38024	32388	32996
3467	0	38061	32372	32976
3468	0	38084	32368	32952
3469	0	38120	32368	32916
3470	0	38124	32364	32884
3471	0	38152	32332	32856
3472	0	38144	32336	32821
3473	0	38144	32318	32781
3474	0	38124	32316	32760
3475	0	38104	32332	32748
3476	0	38096	32352	32728
3477	0	38096	32361	32712
3478	0	38056	32366	32720
3479	0	38024	32412	32744
3480	0	38000	32416	32756
3481	0	37952	32457	32776
3482	0	37912	32508	32784
3483	0	37848	32528	32788
3484	0	37800	32544	32796
3485	0	37808	32560	32828
3486	0	37812	32568	32842
3487	0	37824	32564	32840
3488	0	37804	32564	32848
3489	0	37808	32524	32836
3490	0	37840	32524	32828
3491	0	37820	32488	32816
3492	0	37832	32460	32804
3493	0	37832	32456	32824
3494	0	37840	32432	32808
3495	0	37836	32412	32784
3496	0	37828	32384	32776
3497	0	37840	32404	32756
3498	0	37848	32380	32772
3499	0	37864	32380	32769
3500	0	37916	32388	32788
3501	0	37916	32392	32804
3502	0	37920	32376	32792
3503	0	37916	32360	32788
3504	0	37920	32359	32788
3505	0	37936	32356	32791
3506	0	37932	32364	32792
3507	0	37944	32356	32789
3508	0	37936	32352	32792
3509	0	37952	32364	32776
3510	0	37936	32376	32764
3511	0	37924	32368	32728
3512	0	37900	32400	32733
3513	0	37884	32404	32736
3514	0	37905	32392	32742
3515	0	37912	32384	32768
3516	0	37912	32372	32780
3517	0	37896	32388	32784
3518	0	37912	32421	32812
3519	0	37924	32412	32804
3520	0	37944	32404	32792
3521	0	37940	32436	32796
3522	0	37960	32400	32796
3523	0	37976	32412	32788
3524	0	37984	32416	32789
3525	0	38024	32404	32788
3526	0	38056	32416	32776
3527	0	38080	32414	32760
3528	0	38096	32376	32748
3529	0	38100	32344	32724
3530	0	38128	32356	32732
3531	0	38152	32308	32728
3532	0	38200	32308	32752
3533	0	38228	32320	32824
3534	0	38280	32320	32940
3535	0	38364	32408	33216
3536	0	38504	32644	33524
3537	0	38872	33492	33932
3538	0	39368	34276	34048
3539	0	39320	34032	33560
3540	0	38880	33629	32932
3541	0	38236	33120	32430
3542	0	37752	32616	32008
3543	0	37448	32208	31828
3544	0	37396	31980	31840
3545	0	37532	31896	31992
3546	0	37648	31884	32272
3547	0	37760	31924	32508
3548	0	37824	32092	32800
3549	0	37872	32120	32908
3550	0	37832	32112	33000
3551	0	37752	32196	32904
3552	0	37656	32181	32884
3553	0	37572	32096	32776
3554	0	37568	32108	32732
3555	0	37552	32125	32636
3556	0	37568	32116	32664
3557	0	37632	32116	32712
3558	0	37752	32092	32746
3559	0	37824	32093	32808
3560	0	37872	32128	32880
3561	0	37872	32144	32892
3562	0	37932	32184	32960
3563	0	37968	32252	33024
3564	0	37976	32320	32996
3565	0	38008	32388	33012
3566	0	38012	32376	33008
3567	0	38024	32360	33024
3568	0	38060	32320	32972
3569	0	38076	32300	32908
3570	0	38045	32296	32832
3571	0	38008	32288	32832
3572	0	37988	32270	32824
3573	0	38016	32200	32824
3574	0	38028	32200	32782
3575	0	38024	32252	32804
3576	0	37960	32276	32812
3577	0	37920	32296	32860
3578	0	37932	32280	32900
3579	0	37900	32268	32932
3580	0	37916	32308	33001
3581	0	37912	32352	32984
3582	0	37928	32372	33024
3583	0	37928	32388	33089
3584	0	37944	32412	33148
3585	0	37968	32480	33192
3586	0	37984	32552	33272
3587	0	38040	32676	33336
3588	0	38096	32792	33457
3589	0	38192	32876	33508
3590	0	38252	32932	33488
3591	0	38172	32832	33344
3592	0	38048	32656	33144
3593	0	37904	32568	32908
3594	0	37817	32440	32648
3595	0	37788	32352	32572
3596	0	37800	32276	32576
3597	0	37828	32244	32624
3598	0	37896	32272	32725
3599	0	37944	32287	32780
3600	0	38008	32317	32904
3601	0	38048	32348	33048
3602	0	38096	32364	33136
3603	0	38176	32444	33288
3604	0	38160	32520	33364
3605	0	38156	32532	33389
3606	0	38128	32528	33280
3607	0	38048	32508	33133
3608	0	37944	32444	32956
3609	0	37888	32324	32828
3610	0	37864	32224	32708
3611	0	37904	32224	32704
3612	0	37936	32192	32772
3613	0	37980	32200	32840
3614	0	37960	32228	32892
3615	0	37964	32288	32980
3616	0	37936	32288	33000
3617	0	37920	32280	33036
3618	0	37948	32276	33060
3619	0	37952	32284	33104
3620	0	37972	32308	33144
3621	0	37992	32356	33209
3622	0	38064	32404	33224
3623	0	38112	32472	33308
3624	0	38196	32520	33381
3625	0	38236	32584	33436
3626	0	38260	32620	33424
3627	0	38268	32592	33280
3628	0	38200	32576	33124
3629	0	38092	32480	32948
3630	0	38016	32452	32804
3631	0	37928	32396	32654
3632	0	37872	32316	32616
3633	0	37848	32260	32604
3634	0	37860	32202	32616
3635	0	37884	32173	32704
3636	0	37904	32172	32840
3637	0	37908	32204	32952
3638	0	37928	32288	33032
3639	0	37940	32320	33104
3640	0	37944	32364	33184
3641	0	37936	32436	33176
3642	0	37920	32509	33256
3643	0	37952	32528	33264
3644	0	37948	32500	33168
3645	0	37920	32476	33112
3646	0	37904	32440	33028
3647	0	37924	32432	33056
3648	0	37912	32376	33057
3649	0	37920	32308	33024
3650	0	37928	32264	33028
3651	0	37944	32288	33076
3652	0	37976	32252	33057
3653	0	37996	32247	33024
3654	0	37984	32316	33046
3655	0	37992	32304	33068
3656	0	37992	32328	33108
3657	0	38036	32352	33128
3658	0	38064	32364	33172
3659	0	38088	32408	33236
3660	0	38128	32444	33292
3661	0	38112	32492	33301
3662	0	38120	32520	33312
3663	0	38144	32512	33260
3664	0	38108	32500	33216
3665	0	38084	32485	33200
3666	0	38084	32445	33212
3667	0	38088	32445	33192
3668	0	38080	32448	33156
3669	0	38024	32381	33096
3670	0	38000	32413	33129
3671	0	38012	32400	33084
3672	0	38000	32350	33048
3673	0	38028	32340	33068
3674	0	38040	32280	33048
3675	0	38040	32262	33056
3676	0	38028	32228	33020
3677	0	38004	32212	33012
3678	0	37996	32201	32996
3679	0	38004	32192	32968
3680	0	37984	32156	32960
3681	0	37980	32193	32984
3682	0	37996	32184	33009
3683	0	38024	32120	33000
3684	0	37996	32140	32992
3685	0	37960	32116	32960
3686	0	37964	32188	32940
3687	0	37944	32175	32916
3688	0	37936	32184	32909
3689	0	37960	32136	32832
3690	0	38000	32168	32873
3691	0	38040	32197	32928
3692	0	38064	32200	32960
3693	0	38108	32180	32976
3694	0	38084	32192	32996
3695	0	38096	32208	33036
3696	0	38096	32176	33016
3697	0	38072	32152	33029
3698	0	38056	32164	33016
3699	0	38080	32160	33032
3700	0	38072	32160	33006
3701	0	38056	32176	33000
3702	0	38036	32180	32984
3703	0	38024	32168	32960
3704	0	38040	32160	32956
3705	0	38016	32160	32952
3706	0	38016	32160	32957
3707	0	38020	32168	32960
3708	0	38056	32160	33008
3709	0	38060	32164	33032
3710	0	38052	32148	33068
3711	0	38032	32164	33084
3712	0	38044	32168	33096
3713	0	38048	32172	33116
3714	0	38072	32181	33136
3715	0	38064	32188	33144
3716	0	38056	32204	33140
3717	0	38056	32204	33124
3718	0	38040	32204	33120
3719	0	37996	32212	33105
3720	0	37960	32228	33092
3721	0	37976	32236	33072
3722	0	37976	32228	33092
3723	0	37976	32252	33088
3724	0	37964	32272	33080
3725	0	37960	32288	33064
3726	0	37936	32288	33070
3727	0	37904	32276	33072
3728	0	37876	32272	33076
3729	0	37872	32276	33080
3730	0	37840	32292	33100
3731	0	37816	32284	33132
3732	0	37816	32280	33168
3733	0	37808	32241	33232
3734	0	37832	32142	33352
3735	0	37860	31944	33512
3736	0	37936	31908	33550
3737	0	37908	32177	33544
3738	0	37896	32500	33584
3739	0	37968	32904	33788
3740	0	38268	33664	34444
3741	0	39136	35164	34921
3742	0	39584	35104	34814
3743	0	39016	33741	34156
3744	0	38024	32592	33216
3745	0	37252	31980	32524
3746	0	36968	31728	32152
3747	0	37000	31620	31992
3748	0	37192	31549	31940
3749	0	37464	31624	32064
3750	0	37716	31716	32324
3751	0	37912	31808	32580
3752	0	38036	31880	32824
3753	0	38080	31980	33017
3754	0	38096	32041	33144
3755	0	38032	31996	33144
3756	0	37948	31936	33080
3757	0	37816	31808	32996
3758	0	37704	31716	32924
3759	0	37660	31672	32860
3760	0	37656	31700	32856
3761	0	37664	31768	32888
3762	0	37728	31820	32972
3763	0	37792	31869	33032
3764	0	37840	31916	33060
3765	0	37876	31961	33100
3766	0	37884	31988	33136
3767	0	37888	32016	33153
3768	0	37904	32056	33160
3769	0	37912	32072	33168
3770	0	37952	32104	33192
3771	0	37981	32129	33212
3772	0	38000	32156	33216
3773	0	38008	32188	33216
3774	0	38024	32216	33200
3775	0	38036	32220	33196
3776	0	38064	32224	33176
3777	0	38096	32232	33156
3778	0	38104	32216	33136
3779	0	38088	32220	33128
3780	0	38104	32224	33153
3781	0	38088	32248	33188
3782	0	38104	32264	33253
3783	0	38172	32268	33448
3784	0	38348	32352	34152
3785	0	39020	33464	35096
3786	0	39724	34648	35272
3787	0	39344	33988	34892
3788	0	38252	32908	34028
3789	0	37312	32352	33104
3790	0	36884	32040	32537
3791	0	36852	31744	32208
3792	0	37000	31608	32056
3793	0	37308	31660	32084
3794	0	37564	31784	32244
3795	0	37792	31884	32532
3796	0	37952	32004	32772
3797	0	38008	31980	32904
3798	0	37960	31844	32908
3799	0	37832	31709	32748
3800	0	37696	31600	32576
3801	0	37628	31568	32464
3802	0	37592	31528	32398
3803	0	37656	31528	32408
3804	0	37724	31557	32485
3805	0	37800	31596	32624
3806	0	37880	31632	32773
3807	0	37888	31652	32900
3808	0	37912	31704	32980
3809	0	37912	31732	33048
3810	0	37888	31776	33084
3811	0	37860	31825	33128
3812	0	37876	31872	33168
3813	0	37876	31928	33168
3814	0	37904	31965	33184
3815	0	37913	32000	33196
3816	0	37948	32016	33193
3817	0	37968	32055	33172
3818	0	37984	32072	33132
3819	0	37976	32077	33112
3820	0	37984	32088	33080
3821	0	37972	32096	33040
3822	0	37976	32092	33017
3823	0	37960	32092	32996
3824	0	37944	32072	32984
3825	0	37920	32068	32984
3826	0	37920	32052	32993
3827	0	37896	32053	33004
3828	0	37876	32053	32997
3829	0	37880	32048	33008
3830	0	37872	32048	33004
3831	0	37856	32050	33016
3832	0	37840	32052	33012
3833	0	37824	32044	33020
3834	0	37824	32033	33026
3835	0	37824	32028	33032
3836	0	37840	32032	33028
3837	0	37840	32044	33040
3838	0	37829	32028	33048
3839	0	37824	32036	33024
3840	0	37824	32048	33020
3841	0	37800	32052	33020
3842	0	37792	32048	33032
3843	0	37804	32052	33020
3844	0	37808	32076	33016
3845	0	37796	32064	33008
3846	0	37792	32076	32992
3847	0	37800	32076	32992
3848	0	37808	32076	33008
3849	0	37816	32080	32992
3850	0	37816	32072	32992
3851	0	37824	32068	32993
3852	0	37816	32052	32996
3853	0	37812	32039	33000
3854	0	37800	32048	33004
3855	0	37808	32033	33004
3856	0	37808	32024	33012
3857	0	37812	32008	33016
3858	0	37824	31992	33020
3859	0	37824	31998	33016
3860	0	37852	31992	33024
3861	0	37888	31996	33024
3862	0	37920	32000	33008
3863	0	37952	31976	33028
3864	0	37960	31952	33036
3865	0	38004	31892	33084
3866	0	38044	31791	33136
3867	0	38084	31624	33268
3868	0	38088	31636	33248
3869	0	38032	31904	33108
3870	0	37944	32224	32952
3871	0	37904	32388	32836
3872	0	37920	32368	32737
3873	0	38000	32248	32648
3874	0	38048	32164	32656
3875	0	38104	32088	32720
3876	0	38140	32044	32764
3877	0	38160	32020	32824
3878	0	38152	32012	32876
3879	0	38140	31997	32920
3880	0	38164	31996	32944
3881	0	38164	31996	32992
3882	0	38176	31992	32984
3883	0	38180	31976	32988
3884	0	38168	31968	32980
3885	0	38160	31952	32964
3886	0	38148	31940	32956
3887	0	38136	31940	32929
3888	0	38144	31940	32904
3889	0	38148	31924	32896
3890	0	38144	31896	32896
3891	0	38132	31868	32900
3892	0	38152	31864	32925
3893	0	38148	31900	32957
3894	0	38136	31944	32960
3895	0	38160	32072	32996
3896	0	38168	32180	33140
3897	0	38376	32700	33632
3898	0	38912	33464	33976
3899	0	39216	33200	33896
3900	0	38716	32352	33440
3901	0	37960	31840	32893
3902	0	37404	31644	32492
3903	0	37184	31608	32176
3904	0	37224	31641	32024
3905	0	37416	31636	31900
3906	0	37632	31670	31816
3907	0	37800	31668	31868
3908	0	37912	31652	31960
3909	0	37992	31664	32068
3910	0	37992	31684	32164
3911	0	38016	31678	32248
3912	0	37976	31700	32316
3913	0	37960	31704	32388
3914	0	37920	31708	32452
3915	0	37916	31728	32516
3916	0	37904	31760	32572
3917	0	37888	31784	32640
3918	0	37872	31817	32664
3919	0	37880	31836	32696
3920	0	37888	31844	32688
3921	0	37892	31864	32688
3922	0	37884	31864	32688
3923	0	37888	31884	32700
3924	0	37904	31904	32704
3925	0	37912	31940	32705
3926	0	37936	31952	32714
3927	0	37936	31976	32712
3928	0	37936	31978	32729
3929	0	37932	32004	32724
3930	0	37929	32000	32701
3931	0	37936	32004	32684
3932	0	37944	32008	32660
3933	0	37956	32004	32640
3934	0	37984	31996	32620
3935	0	37968	32000	32588
3936	0	37960	31992	32580
3937	0	37936	31984	32588
3938	0	37940	31980	32588
3939	0	37952	31965	32596
3940	0	37928	31956	32592
3941	0	37916	31948	32600
3942	0	37936	31936	32604
3943	0	37928	31908	32620
3944	0	37952	31876	32656
3945	0	37932	31828	32704
3946	0	37944	31744	32768
3947	0	37940	31684	32820
3948	0	37928	31745	32784
3949	0	37888	31884	32733
3950	0	37832	31932	32720
3951	0	37816	31977	32656
3952	0	37824	32008	32628
3953	0	37833	31984	32616
3954	0	37844	31965	32600
3955	0	37880	31972	32584
3956	0	37936	31932	32608
3957	0	37968	31868	32624
3958	0	38004	31852	32636
3959	0	38036	31848	32660
3960	0	38068	31828	32665
3961	0	38072	31808	32672
3962	0	38112	31828	32665
3963	0	38156	31849	32660
3964	0	38168	31864	32664
3965	0	38192	31868	32652
3966	0	38208	31880	32664
3967	0	38224	31880	32664
3968	0	38224	31881	32668
3969	0	38264	31880	32672
3970	0	38264	31888	32656
3971	0	38256	31908	32656
3972	0	38248	31908	32644
3973	0	38240	31944	32620
3974	0	38252	31952	32608
3975	0	38248	31968	32601
3976	0	38224	31968	32580
3977	0	38208	32000	32548
3978	0	38184	32020	32529
3979	0	38176	32024	32512
3980	0	38176	32024	32484
3981	0	38152	32020	32456
3982	0	38128	32004	32436
3983	0	38148	31976	32412
3984	0	38140	31956	32400
3985	0	38168	31928	32392
3986	0	38176	31912	32376
3987	0	38184	31884	32380
3988	0	38200	31884	32376
3989	0	38184	31868	32392
3990	0	38200	31852	32392
3991	0	38200	31864	32408
3992	0	38208	31852	32416
3993	0	38192	31852	32400
3994	0	38168	31844	32412
3995	0	38168	31848	32428
3996	0	38156	31848	32420
3997	0	38128	31860	32424
3998	0	38108	31866	32424
3999	0	38080	31876	32436
4000	0	38036	31896	32424
4001	0	38044	31904	32432
4002	0	38024	31908	32424
4003	0	38012	31912	32420
4004	0	37996	31921	32404
4005	0	37984	31932	32392
4006	0	37984	31928	32392
4007	0	37980	31920	32392
4008	0	37980	31925	32392
4009	0	37964	31916	32401
4010	0	38008	31909	32416
4011	0	38008	31904	32428
4012	0	38008	31900	32416
4013	0	38000	31912	32416
4014	0	38016	31936	32436
4015	0	38020	31936	32436
4016	0	38040	31933	32456
4017	0	38044	31901	32488
4018	0	38024	31848	32532
4019	0	38016	31812	32560
4020	0	37992	31812	32556
4021	0	37960	31876	32536
4022	0	37904	31988	32472
4023	0	37876	32036	32420
4024	0	37864	32060	32384
4025	0	37872	32046	32380
4026	0	37876	32008	32384
4027	0	37928	31988	32376
4028	0	37976	31964	32392
4029	0	38012	31928	32412
4030	0	38048	31904	32436
4031	0	38064	31900	32433
4032	0	38100	31880	32448
4033	0	38096	31869	32436
4034	0	38088	31864	32436
4035	0	38116	31852	32440
4036	0	38080	31856	32424
4037	0	38072	31864	32404
4038	0	38032	31864	32396
4039	0	38008	31888	32392
4040	0	37968	31896	32388
4041	0	37940	31900	32392
4042	0	37936	31892	32392
4043	0	37916	31908	32392
4044	0	37897	31904	32412
4045	0	37888	31901	32408
4046	0	37880	31900	32408
4047	0	37876	31917	32384
4048	0	37880	31916	32385
4049	0	37896	31936	32396
4050	0	37912	31945	32400
4051	0	37920	31944	32404
4052	0	37936	31948	32392
4053	0	37920	31960	32388
4054	0	37912	31976	32392
4055	0	37904	31973	32381
4056	0	37908	31977	32364
4057	0	37920	31984	32352
4058	0	37928	31984	32344
4059	0	37928	31980	32360
4060	0	37928	31976	32384
4061	0	37936	31969	32413
4062	0	37932	31976	32414
4063	0	37936	31968	32404
4064	0	37928	31953	32408
4065	0	37916	31960	32404
4066	0	37904	31984	32392
4067	0	37880	31988	32400
4068	0	37868	31992	32406
4069	0	37864	31996	32408
4070	0	37880	32004	32424
4071	0	37880	32008	32424
4072	0	37864	32004	32432
4073	0	37860	32000	32440
4074	0	37876	32001	32444
4075	0	37892	32004	32444
4076	0	37928	31992	32460
4077	0	37944	31981	32472
4078	0	37944	31976	32468
4079	0	37936	31972	32464
4080	0	37952	31968	32472
4081	0	37960	31964	32464
4082	0	37960	31944	32464
4083	0	37960	31952	32464
4084	0	37968	31956	32477
4085	0	37972	31948	32492
4086	0	37976	31944	32520
4087	0	37984	31948	32541
4088	0	37996	31944	32580
4089	0	38016	31964	32592
4090	0	38064	31960	32656
4091	0	38128	31960	32793
4092	0	38184	32016	32940
4093	0	38272	32105	33080
4094	0	38404	32344	33242
4095	0	38504	32372	33296
4096	0	38416	32220	33176
4097	0	38172	32168	32928
4098	0	37904	32200	32664
4099	0	37696	32228	32448
4100	0	37656	32200	32328
4101	0	37736	32056	32236
4102	0	37796	31956	32192
4103	0	37840	31892	32136
4104	0	37856	31773	32077
4105	0	37888	31788	32128
4106	0	37888	31792	32153
4107	0	37900	31724	32204
4108	0	37856	31680	32120
4109	0	37852	31680	32156
4110	0	37804	31688	32140
4111	0	37801	31721	32169
4112	0	37840	31753	32228
4113	0	37852	31792	32296
4114	0	37880	31752	32376
4115	0	37928	31752	32396
4116	0	37944	31716	32460
4117	0	37952	31756	32445
4118	0	37936	31796	32464
4119	0	37936	31840	32428
4120	0	37936	31864	32416
4121	0	37932	31856	32420
4122	0	37900	31852	32445
4123	0	37896	31844	32468
4124	0	37864	31860	32512
4125	0	37864	31888	32520
4126	0	37840	31964	32548
4127	0	37832	31960	32608
4128	0	37856	31933	32640
4129	0	37888	31952	32688
4130	0	37896	31964	32756
4131	0	37900	31992	32772
4132	0	37920	32036	32844
4133	0	37872	32052	32800
4134	0	37849	32104	32736
4135	0	37808	32088	32688
4136	0	37784	32028	32672
4137	0	37776	32000	32628
4138	0	37756	31980	32604
4139	0	37736	31976	32568
4140	0	37724	31972	32560
4141	0	37712	31997	32541
4142	0	37716	31952	32576
4143	0	37704	31984	32580
4144	0	37704	31968	32600
4145	0	37688	31960	32596
4146	0	37660	31997	32601
4147	0	37657	31988	32640
4148	0	37660	32004	32648
4149	0	37688	32012	32676
4150	0	37712	31996	32708
4151	0	37720	31984	32732
4152	0	37744	31956	32769
4153	0	37760	31961	32808
4154	0	37808	31952	32860
4155	0	37848	31940	32880
4156	0	37868	31917	32892
4157	0	37908	31932	32904
4158	0	37936	31965	32900
4159	0	37952	32000	32898
4160	0	37976	32012	32896
4161	0	38024	32036	32916
4162	0	38092	32080	32976
4163	0	38156	32084	33080
4164	0	38224	32109	33168
4165	0	38256	32120	33196
4166	0	38208	32093	33100
4167	0	38024	32144	32924
4168	0	37916	32136	32748
4169	0	37860	32064	32624
4170	0	37812	31996	32548
4171	0	37864	31952	32532
4172	0	37872	31916	32520
4173	0	37876	31880	32544
4174	0	37868	31853	32548
4175	0	37872	31876	32540
4176	0	37864	31856	32524
4177	0	37896	31852	32572
4178	0	37888	31840	32582
4179	0	37888	31808	32592
4180	0	37892	31816	32572
4181	0	37876	31828	32568
4182	0	37886	31808	32576
4183	0	37936	31860	32608
4184	0	37960	31841	32620
4185	0	37976	31848	32652
4186	0	37996	31824	32720
4187	0	38008	31864	32716
4188	0	37984	31872	32728
4189	0	37944	31852	32696
4190	0	37920	31844	32668
4191	0	37912	31860	32644
4192	0	37916	31832	32656
4193	0	37900	31792	32648
4194	0	37912	31804	32660
4195	0	37904	31793	32680
4196	0	37896	31772	32697
4197	0	37912	31788	32676
4198	0	37936	31752	32672
4199	0	37944	31736	32688
4200	0	37916	31788	32688
4201	0	37916	31764	32692
4202	0	37888	31744	32652
4203	0	37900	31740	32636
4204	0	37900	31708	32638
4205	0	37892	31696	32637
4206	0	37884	31744	32628
4207	0	37904	31736	32652
4208	0	37936	31688	32684
4209	0	37912	31672	32644
4210	0	37888	31687	32660
4211	0	37880	31680	32672
4212	0	37880	31709	32672
4213	0	37856	31684	32680
4214	0	37844	31736	32752
4215	0	37832	31684	32736
4216	0	37856	31708	32704
4217	0	37856	31720	32724
4218	0	37848	31688	32704
4219	0	37864	31684	32700
4220	0	37864	31701	32704
4221	0	37848	31676	32708
4222	0	37872	31692	32728
4223	0	37880	31705	32748
4224	0	37888	31700	32748
4225	0	37872	31697	32789
4226	0	37860	31704	32784
4227	0	37880	31700	32800
4228	0	37900	31684	32824
4229	0	37896	31692	32832
4230	0	37887	31696	32852
4231	0	37888	31720	32864
4232	0	37916	31704	32884
4233	0	37912	31729	32912
4234	0	37936	31732	32920
4235	0	37960	31780	32952
4236	0	37980	31772	33040
4237	0	38012	31752	33052
4238	0	38032	31744	33064
4239	0	38032	31740	33084
4240	0	38064	31748	33084
4241	0	38088	31760	33141
4242	0	38096	31736	33112
4243	0	38096	31781	33108
4244	0	38072	31768	33104
4245	0	38080	31781	33080
4246	0	38024	31764	33044
4247	0	37952	31732	32924
4248	0	37944	31764	32869
4249	0	37964	31732	32832
4250	0	37952	31768	32816
4251	0	37960	31716	32768
4252	0	37988	31676	32748
4253	0	37976	31652	32757
4254	0	37960	31648	32772
4255	0	37936	31688	32772
4256	0	37916	31720	32744
4257	0	37888	31753	32752
4258	0	37884	31737	32780
4259	0	37840	31720	32800
4260	0	37856	31728	32820
4261	0	37844	31740	32824
4262	0	37860	31740	32816
4263	0	37876	31736	32833
4264	0	37896	31720	32828
4265	0	37920	31712	32808
4266	0	37936	31692	32809
4267	0	37940	31701	32800
4268	0	37952	31676	32816
4269	0	37960	31672	32836
4270	0	37972	31644	32856
4271	0	37996	31612	32860
4272	0	37984	31584	32864
4273	0	37976	31578	32864
4274	0	37988	31576	32852
4275	0	38008	31580	32848
4276	0	38020	31552	32856
4277	0	38012	31532	32864
4278	0	38040	31516	32864
4279	0	38040	31564	32840
4280	0	38048	31601	32816
4281	0	38052	31592	32804
4282	0	38032	31600	32788
4283	0	38024	31612	32766
4284	0	38004	31632	32740
4285	0	38000	31644	32728
4286	0	38000	31625	32740
4287	0	38024	31600	32768
4288	0	38024	31684	32776
4289	0	38036	31696	32764
4290	0	38084	31684	32829
4291	0	38108	31680	32868
4292	0	38120	31696	32904
4293	0	38112	31660	32924
4294	0	38080	31636	32888
4295	0	38032	31657	32800
4296	0	37976	31632	32704
4297	0	37940	31564	32592
4298	0	37928	31604	32486
4299	0	37956	31556	32420
4300	0	37960	31540	32389
4301	0	38000	31468	32388
4302	0	38024	31432	32400
4303	0	38072	31348	32444
4304	0	38104	31328	32472
4305	0	38096	31348	32516
4306	0	38104	31380	32580
4307	0	38096	31385	32624
4308	0	38132	31361	32676
4309	0	38128	31444	32716
4310	0	38120	31428	32728
4311	0	38145	31424	32756
4312	0	38144	31433	32788
4313	0	38144	31408	32792
4314	0	38152	31466	32776
4315	0	38132	31504	32772
4316	0	38128	31450	32740
4317	0	38145	31440	32732
4318	0	38120	31500	32740
4319	0	38116	31452	32736
4320	0	38104	31552	32732
4321	0	38100	31584	32720
4322	0	38092	31528	32736
4323	0	38084	31524	32725
4324	0	38068	31572	32684
4325	0	38056	31616	32697
4326	0	38044	31588	32688
4327	0	38064	31544	32724
4328	0	38068	31568	32744
4329	0	38056	31624	32768
4330	0	38048	31616	32768
4331	0	38048	31628	32744
4332	0	38072	31552	32720
4333	0	38068	31624	32708
4334	0	38040	31656	32692
4335	0	38016	31684	32680
4336	0	38016	31688	32712
4337	0	38020	31636	32692
4338	0	37992	31656	32708
4339	0	37944	31716	32684
4340	0	37920	31708	32688
4341	0	37900	31680	32688
4342	0	37908	31728	32704
4343	0	37912	31764	32712
4344	0	37884	31700	32700
4345	0	37864	31720	32708
4346	0	37872	31693	32700
4347	0	37864	31672	32676
4348	0	37873	31740	32688
4349	0	37880	31676	32708
4350	0	37888	31672	32749
4351	0	37912	31664	32736
4352	0	37928	31628	32756
4353	0	37928	31588	32785
4354	0	37952	31572	32800
4355	0	37985	31604	32780
4356	0	38024	31572	32776
4357	0	38080	31536	32800
4358	0	38120	31540	32808
4359	0	38152	31548	32813
4360	0	38160	31568	32804
4361	0	38176	31568	32792
4362	0	38160	31516	32780
4363	0	38132	31568	32744
4364	0	38108	31556	32736
4365	0	38088	31548	32736
4366	0	38048	31548	32712
4367	0	38024	31593	32724
4368	0	37992	31576	32716
4369	0	37996	31536	32748
4370	0	37992	31572	32752
4371	0	37984	31546	32756
4372	0	37996	31536	32768
4373	0	38016	31524	32780
4374	0	38032	31560	32776
4375	0	38064	31544	32788
4376	0	38084	31524	32804
4377	0	38096	31533	32826
4378	0	38096	31536	32828
4379	0	38112	31520	32840
4380	0	38120	31508	32852
4381	0	38128	31501	32860
4382	0	38128	31536	32856
4383	0	38120	31550	32852
4384	0	38080	31572	32832
4385	0	38068	31592	32836
4386	0	38040	31589	32828
4387	0	37988	31616	32820
4388	0	37976	31640	32816
4389	0	37944	31656	32832
4390	0	37932	31648	32828
4391	0	37872	31672	32828
4392	0	37864	31676	32840
4393	0	37888	31652	32872
4394	0	37856	31660	32908
4395	0	37808	31672	32896
4396	0	37788	31684	32900
4397	0	37816	31700	32908
4398	0	37800	31664	32932
4399	0	37764	31688	32928
4400	0	37736	31708	32928
4401	0	37728	31692	32932
4402	0	37736	31704	32968
4403	0	37748	31716	32976
4404	0	37776	31724	32976
4405	0	37792	31716	32988
4406	0	37800	31740	32984
4407	0	37760	31740	33000
4408	0	37724	31760	33020
4409	0	37720	31768	33040
4410	0	37724	31808	33072
4411	0	37700	31800	33056
4412	0	37676	31860	33084
4413	0	37664	31880	33104
4414	0	37588	31920	33152
4415	0	37400	31960	33500
4416	0	37220	32056	33836
4417	0	37264	32200	33836
4418	0	37496	32172	33580
4419	0	37568	32060	33276
4420	0	37552	31872	33100
4421	0	37632	31716	32992
4422	0	37752	31585	32920
4423	0	37800	31548	32916
4424	0	37860	31576	32952
4425	0	37872	31616	33000
4426	0	37864	31680	33084
4427	0	37896	31760	33172
4428	0	37872	31808	33228
4429	0	37824	31848	33244
4430	0	37793	31896	33272
4431	0	37760	32020	33296
4432	0	37732	32109	33232
4433	0	37680	32012	33200
4434	0	37696	31792	33252
4435	0	37720	31760	33296
4436	0	37668	31728	33260
4437	0	37680	31759	33240
4438	0	37712	31752	33268
4439	0	37736	31720	33276
4440	0	37744	31740	33332
4441	0	37824	31720	33384
4442	0	37916	31737	33481
4443	0	37932	31752	33488
4444	0	37920	31724	33424
4445	0	37932	31724	33436
4446	0	38040	31728	33504
4447	0	38108	31688	33528
4448	0	38136	31705	33528
4449	0	38112	31688	33496
4450	0	38152	31720	33528
4451	0	38196	31740	33556
4452	0	38124	31720	33464
4453	0	38048	31744	33424
4454	0	38104	31776	33516
4455	0	38216	31764	33572
4456	0	38224	31732	33560
4457	0	38192	31741	33564
4458	0	38224	31737	33600
4459	0	38272	31732	33616
4460	0	38256	31676	33572
4461	0	38244	31704	33581
4462	0	38264	31696	33569
4463	0	38248	31692	33564
4464	0	38280	31692	33560
4465	0	38264	31696	33545
4466	0	38224	31724	33528
4467	0	38184	31740	33508
4468	0	38096	31776	33492
4469	0	38024	31804	33456
4470	0	37952	31800	33452
4471	0	37936	31844	33496
4472	0	37920	31848	33504
4473	0	37932	31860	33528
4474	0	37952	31860	33576
4475	0	37945	31892	33577
4476	0	37912	31896	33568
4477	0	37924	31904	33560
4478	0	37892	31924	33560
4479	0	37872	31916	33568
4480	0	37860	31908	33584
4481	0	37852	31900	33584
4482	0	37816	31916	33600
4483	0	37780	31940	33608
4484	0	37768	31944	33620
4485	0	37736	31964	33644
4486	0	37704	31964	33636
4487	0	37696	31989	33620
4488	0	37696	32016	33609
4489	0	37700	32040	33604
4490	0	37704	32056	33584
4491	0	37696	32079	33576
4492	0	37696	32084	33556
4493	0	37696	32080	33536
4494	0	37696	32080	33532
4495	0	37704	32084	33502
4496	0	37685	32080	33496
4497	0	37680	32084	33472
4498	0	37664	32076	33460
4499	0	37656	32048	33440
4500	0	37664	32048	33408
4501	0	37664	32040	33372
4502	0	37660	32024	33340
4503	0	37640	32020	33312
4504	0	37628	32008	33272
4505	0	37640	32009	33232
4506	0	37624	32000	33204
4507	0	37624	31996	33180
4508	0	37620	31976	33128
4509	0	37640	31960	33108
4510	0	37648	31948	33072
4511	0	37652	31932	33052
4512	0	37648	31928	33044
4513	0	37672	31896	33028
4514	0	37696	31876	33005
4515	0	37716	31844	32988
4516	0	37736	31808	32992
4517	0	37744	31776	32980
4518	0	37784	31737	32964
4519	0	37808	31708	32968
4520	0	37816	31696	32968
4521	0	37872	31684	32952
4522	0	37904	31672	32944
4523	0	37928	31656	32932
4524	0	37944	31652	32922
4525	0	37976	31636	32916
4526	0	37984	31640	32900
4527	0	38012	31616	32880
4528	0	38040	31624	32856
4529	0	38040	31616	32844
4530	0	38048	31616	32820
4531	0	38056	31612	32788
4532	0	38056	31597	32760
4533	0	38060	31588	32748
4534	0	38072	31584	32748
4535	0	38072	31592	32728
4536	0	38080	31600	32720
4537	0	38080	31612	32696
4538	0	38072	31604	32704
4539	0	38088	31596	32704
4540	0	38080	31612	32692
4541	0	38080	31604	32680
4542	0	38108	31600	32677
4543	0	38128	31592	32672
4544	0	38148	31566	32676
4545	0	38160	31560	32680
4546	0	38160	31536	32676
4547	0	38196	31540	32676
4548	0	38204	31516	32668
4549	0	38216	31536	32640
4550	0	38208	31540	32608
4551	0	38208	31537	32604
4552	0	38192	31524	32576
4553	0	38140	31552	32544
4554	0	38136	31576	32516
4555	0	38156	31584	32504
4556	0	38172	31581	32516
4557	0	38184	31576	32516
4558	0	38176	31600	32484
4559	0	38144	31616	32456
4560	0	38140	31628	32460
4561	0	38136	31608	32469
4562	0	38108	31644	32472
4563	0	38112	31648	32478
4564	0	38080	31636	32484
4565	0	38068	31672	32524
4566	0	38016	31732	32536
4567	0	38020	31912	32608
4568	0	38012	31996	32688
4569	0	37968	31916	32708
4570	0	37924	31760	32704
4571	0	37852	31700	32680
4572	0	37816	31684	32656
4573	0	37808	31716	32648
4574	0	37816	31708	32648
4575	0	37824	31696	32664
4576	0	37760	31745	32676
4577	0	37712	31768	32664
4578	0	37688	31800	32652
4579	0	37704	31844	32644
4580	0	37728	31864	32664
4581	0	37808	31888	32665
4582	0	37868	31880	32717
4583	0	37880	31874	32728
4584	0	37928	31888	32752
4585	0	37992	31888	32774
4586	0	38008	31887	32764
4587	0	38040	31884	32796
4588	0	38064	31852	32792
4589	0	38104	31836	32804
4590	0	38141	31848	32800
4591	0	38148	31856	32788
4592	0	38152	31828	32784
4593	0	38176	31822	32780
4594	0	38152	31820	32752
4595	0	38156	31844	32736
4596	0	38104	31852	32748
4597	0	38040	31820	32744
4598	0	38032	31828	32760
4599	0	38084	31816	32780
4600	0	38080	31796	32780
4601	0	38096	31784	32760
4602	0	38080	31777	32720
4603	0	38112	31768	32688
4604	0	38112	31765	32648
4605	0	38120	31784	32628
4606	0	38140	31764	32620
4607	0	38152	31768	32612
4608	0	38172	31760	32604
4609	0	38168	31768	32596
4610	0	38148	31760	32584
4611	0	38152	31768	32566
4612	0	38160	31752	32548
4613	0	38156	31772	32520
4614	0	38116	31776	32496
4615	0	38052	31780	32456
4616	0	38008	31796	32428
4617	0	37952	31812	32400
4618	0	37904	31812	32392
4619	0	37852	31824	32376
4620	0	37808	31860	32344
4621	0	37768	31868	32336
4622	0	37752	31896	32296
4623	0	37760	31904	32312
4624	0	37772	31916	32316
4625	0	37756	31928	32320
4626	0	37724	31932	32336
4627	0	37720	31944	32332
4628	0	37756	31948	32360
4629	0	37776	31935	32368
4630	0	37808	31936	32376
4631	0	37832	31933	32352
4632	0	37864	31932	32344
4633	0	37860	31932	32352
4634	0	37840	31924	32344
4635	0	37824	31916	32333
4636	0	37848	31900	32336
4637	0	37876	31896	32372
4638	0	37896	31896	32372
4639	0	37872	31908	32380
4640	0	37852	31896	32396
4641	0	37836	31884	32416
4642	0	37888	31912	32480
4643	0	37896	31900	32496
4644	0	37872	31904	32508
4645	0	37932	31920	32560
4646	0	37992	31904	32605
4647	0	38000	31880	32600
4648	0	38000	31904	32632
4649	0	38032	31904	32632
4650	0	38068	31892	32617
4651	0	38124	31904	32636
4652	0	38144	31913	32648
4653	0	38124	31920	32648
4654	0	38068	31924	32624
4655	0	38080	31952	32648
4656	0	38072	31952	32656
4657	0	38024	31948	32656
4658	0	37992	31964	32656
4659	0	37992	31980	32672
4660	0	37992	31980	32660
4661	0	37992	31989	32656
4662	0	38036	32016	32680
4663	0	38024	31984	32644
4664	0	38008	31993	32600
4665	0	38046	31996	32612
4666	0	38072	31992	32600
4667	0	38048	32008	32600
4668	0	38024	32000	32580
4669	0	38012	31980	32548
4670	0	38048	32008	32576
4671	0	38064	31992	32584
4672	0	38081	31992	32612
4673	0	38048	31992	32596
4674	0	38004	32004	32608
4675	0	37980	31996	32612
4676	0	37984	31992	32624
4677	0	37992	32008	32648
4678	0	37984	32016	32640
4679	0	37936	32032	32585
4680	0	37888	32054	32548
4681	0	37852	32072	32544
4682	0	37840	32064	32548
4683	0	37844	32080	32544
4684	0	37824	32080	32564
4685	0	37808	32076	32549
4686	0	37752	32077	32524
4687	0	37704	32088	32504
4688	0	37684	32097	32478
4689	0	37660	32104	32449
4690	0	37660	32104	32429
4691	0	37664	32104	32416
4692	0	37660	32092	32400
4693	0	37684	32092	32384
4694	0	37684	32088	32372
4695	0	37676	32072	32364
4696	0	37656	32054	32352
4697	0	37640	32060	32332
4698	0	37632	32049	32328
4699	0	37616	32056	32321
4700	0	37600	32060	32312
4701	0	37552	32084	32304
4702	0	37524	32088	32284
4703	0	37496	32092	32284
4704	0	37472	32120	32260
4705	0	37448	32128	32240
4706	0	37448	32132	32232
4707	0	37432	32124	32232
4708	0	37416	32132	32221
4709	0	37432	32132	32216
4710	0	37400	32136	32222
4711	0	37400	32128	32216
4712	0	37416	32128	32224
4713	0	37448	32121	32240
4714	0	37476	32118	32252
4715	0	37492	32108	32272
4716	0	37496	32100	32288
4717	0	37512	32105	32308
4718	0	37552	32100	32336
4719	0	37608	32089	32356
4720	0	37680	32084	32392
4721	0	37728	32084	32416
4722	0	37784	32064	32468
4723	0	37860	32044	32524
4724	0	37936	32036	32592
4725	0	38036	32012	32668
4726	0	38160	32008	32716
4727	0	38248	31996	32764
4728	0	38352	31980	32780
4729	0	38400	31964	32768
4730	0	38420	31940	32740
4731	0	38412	31920	32704
4732	0	38364	31908	32656
4733	0	38288	31928	32600
4734	0	38200	31936	32548
4735	0	38088	31956	32504
4736	0	38008	31972	32472
4737	0	37952	31984	32444
4738	0	37884	32017	32420
4739	0	37808	32020	32404
4740	0	37772	32028	32380
4741	0	37752	32040	32380
4742	0	37732	32032	32360
4743	0	37732	32016	32348
4744	0	37728	31997	32340
4745	0	37756	31996	32321
4746	0	37816	31977	32320
4747	0	37856	31956	32328
4748	0	37896	31948	32334
4749	0	37952	31944	32332
4750	0	37992	31944	32332
4751	0	38040	31936	32356
4752	0	38036	31936	32356
4753	0	38036	31944	32336
4754	0	38024	31950	32320
4755	0	38044	31956	32320
4756	0	38016	31968	32328
4757	0	38016	31952	32344
4758	0	37992	31957	32336
4759	0	37976	31940	32345
4760	0	37968	31936	32348
4761	0	37936	31933	32352
4762	0	37928	31940	32352
4763	0	37920	31964	32344
4764	0	37944	31976	32342
4765	0	37936	31984	32348
4766	0	37940	31964	32372
4767	0	37952	31976	32368
4768	0	38028	31992	32388
4769	0	38068	31984	32372
4770	0	38052	32004	32356
4771	0	37976	32025	32364
4772	0	37952	32028	32368
4773	0	38000	32024	32364
4774	0	38008	32028	32352
4775	0	38008	32052	32348
4776	0	37980	32060	32351
4777	0	37956	32060	32356
4778	0	37928	32084	32376
4779	0	37912	32104	32400
4780	0	37896	32112	32442
4781	0	37892	32124	32468
4782	0	37912	32136	32488
4783	0	37912	32141	32532
4784	0	37972	32148	32561
4785	0	38008	32136	32604
4786	0	38032	32132	32632
4787	0	38048	32152	32652
4788	0	38072	32172	32644
4789	0	38068	32176	32664
4790	0	38068	32204	32672
4791	0	38076	32205	32677
4792	0	38048	32224	32672
4793	0	38020	32228	32697
4794	0	37992	32236	32708
4795	0	38000	32260	32705
4796	0	37984	32277	32720
4797	0	37972	32280	32724
4798	0	37964	32288	32732
4799	0	37956	32292	32720
4800	0	37956	32296	32724
4801	0	37960	32308	32720
4802	0	37944	32312	32714
4803	0	37948	32320	32720
4804	0	37944	32316	32724
4805	0	37936	32308	32736
4806	0	37936	32308	32736
4807	0	37928	32300	32732
4808	0	37920	32288	32732
4809	0	37960	32284	32732
4810	0	37972	32292	32708
4811	0	37932	32285	32692
4812	0	37928	32272	32664
4813	0	37920	32284	32648
4814	0	37912	32288	32632
4815	0	37912	32272	32628
4816	0	37912	32280	32636
4817	0	37932	32272	32636
4818	0	37928	32280	32632
4819	0	37904	32277	32620
4820	0	37896	32296	32604
