# OpenSignals Text File Format
# {"00:07:80:4D:2E:5B":{"sensor":["gACCx","gACCy","gACCz"],"device name":"00:07:80:4D:2E:5B","column":["nSeq","DI","gACCx","gACCy","gACCz"],"sync interval":2,"time":"05:31:21","comments":"","keywords":"","device connection":"BTH00:07:80:4D:2E:5B","channels":[1,2,3],"date":"2024-10-17","mode":0,"digital IO":[0,1],"firmware version":775,"device":"biosignalsplux","position":0,"sampling rate":1000,"label":["gACCx","gACCy","gACCz"],"resolution":[16,16,16],"special":[{},{},{}],"sleeve color":["UNKNOWN","UNKNOWN","UNKNOWN"]}}
# EndOfHeader
0	0	33000	32772	28160
1	0	33004	32772	28160
2	0	32992	32776	28180
3	0	33004	32784	28192
4	0	33008	32788	28172
5	0	33028	32784	28184
6	0	33049	32800	28192
7	0	33052	32798	28168
8	0	33060	32792	28148
9	0	33072	32784	28148
10	0	33060	32788	28156
11	0	33072	32792	28136
12	0	33060	32800	28132
13	0	33068	32788	28136
14	0	33064	32788	28157
15	0	33056	32784	28148
16	0	33056	32784	28120
17	0	33053	32780	28116
18	0	33048	32788	28128
19	0	33024	32792	28136
20	0	32996	32798	28172
21	0	32968	32793	28188
22	0	32972	32792	28200
23	0	32976	32806	28196
24	0	32968	32804	28189
25	0	32968	32816	28192
26	0	32957	32812	28192
27	0	32944	32820	28200
28	0	32944	32816	28184
29	0	32936	32832	28189
30	0	32944	32824	28177
31	0	32952	32828	28172
32	0	32960	32828	28168
33	0	32952	32824	28160
34	0	32948	32832	28152
35	0	32948	32832	28124
36	0	32952	32828	28136
37	0	32968	32840	28136
38	0	32980	32844	28136
39	0	32976	32856	28120
40	0	32968	32852	28108
41	0	32978	32840	28110
42	0	32980	32836	28096
43	0	32980	32844	28096
44	0	32984	32836	28100
45	0	32988	32836	28102
46	0	32997	32852	28105
47	0	33004	32844	28104
48	0	32988	32852	28093
49	0	32996	32857	28090
50	0	32984	32856	28068
51	0	32988	32848	28064
52	0	32984	32852	28064
53	0	32992	32844	28064
54	0	32996	32832	28077
55	0	33008	32836	28068
56	0	32996	32821	28072
57	0	32996	32830	28084
58	0	32984	32820	28072
59	0	33000	32816	28076
60	0	33000	32821	28076
61	0	32992	32828	28100
62	0	33012	32824	28102
63	0	33004	32820	28104
64	0	33016	32824	28101
65	0	33016	32820	28105
66	0	33016	32824	28108
67	0	33012	32814	28104
68	0	33016	32800	28100
69	0	33020	32800	28112
70	0	33028	32804	28100
71	0	33024	32792	28096
72	0	33029	32788	28088
73	0	33016	32792	28072
74	0	33024	32796	28061
75	0	33024	32796	28064
76	0	33016	32776	28061
77	0	33024	32768	28084
78	0	33016	32768	28084
79	0	33024	32768	28104
80	0	33032	32768	28124
81	0	33036	32764	28129
82	0	33040	32760	28152
83	0	33024	32748	28169
84	0	33032	32752	28160
85	0	33032	32744	28164
86	0	33016	32760	28184
87	0	33008	32774	28192
88	0	33004	32756	28204
89	0	33008	32756	28204
90	0	33000	32752	28208
91	0	33000	32752	28212
92	0	33004	32740	28188
93	0	33004	32736	28184
94	0	33008	32744	28188
95	0	33008	32752	28168
96	0	33000	32748	28168
97	0	32996	32760	28180
98	0	33012	32744	28164
99	0	33004	32740	28140
100	0	33012	32733	28128
101	0	33008	32736	28120
102	0	33012	32720	28126
103	0	33004	32736	28116
104	0	33016	32736	28113
105	0	33025	32716	28105
106	0	33024	32724	28112
107	0	33009	32732	28137
108	0	33012	32732	28140
109	0	33000	32744	28122
110	0	33004	32744	28120
111	0	33016	32745	28116
112	0	33020	32744	28128
113	0	33016	32740	28136
114	0	33012	32732	28128
115	0	32996	32744	28113
116	0	32984	32748	28136
117	0	32992	32748	28144
118	0	32984	32749	28168
119	0	32984	32728	28160
120	0	32992	32736	28160
121	0	32976	32748	28172
122	0	32960	32748	28168
123	0	32992	32736	28172
124	0	32972	32728	28168
125	0	32976	32736	28168
126	0	32968	32748	28152
127	0	32960	32744	28156
128	0	32976	32736	28156
129	0	32968	32744	28143
130	0	32980	32736	28138
131	0	32976	32728	28132
132	0	32980	32732	28154
133	0	32984	32741	28152
134	0	32984	32735	28160
135	0	32984	32736	28168
136	0	32968	32744	28174
137	0	32976	32748	28165
138	0	32992	32752	28160
139	0	32980	32752	28156
140	0	32980	32748	28164
141	0	32992	32752	28168
142	0	33004	32756	28176
143	0	33000	32748	28152
144	0	32992	32764	28137
145	0	32980	32756	28160
146	0	33008	32744	28144
147	0	32984	32752	28136
148	0	32968	32764	28128
149	0	32980	32756	28112
150	0	32984	32764	28096
151	0	32988	32752	28084
152	0	32988	32760	28076
153	0	32992	32765	28064
154	0	32992	32764	28060
155	0	32996	32760	28056
156	0	33012	32760	28056
157	0	33024	32765	28052
158	0	33032	32756	28044
159	0	33032	32776	28052
160	0	33037	32776	28044
161	0	33044	32776	28052
162	0	33052	32772	28048
163	0	33056	32769	28069
164	0	33056	32764	28076
165	0	33056	32773	28056
166	0	33048	32761	28064
167	0	33032	32772	28076
168	0	33040	32768	28062
169	0	33052	32756	28064
170	0	33032	32773	28064
171	0	33028	32780	28084
172	0	33016	32772	28072
173	0	33032	32776	28072
174	0	33028	32756	28068
175	0	33040	32760	28078
176	0	33048	32752	28084
177	0	33032	32760	28076
178	0	33032	32760	28060
179	0	33020	32772	28060
180	0	33024	32776	28040
181	0	33016	32788	28028
182	0	33024	32768	28040
183	0	33028	32760	28036
184	0	33032	32776	28036
185	0	33044	32776	28040
186	0	33037	32772	28037
187	0	33040	32760	28048
188	0	33060	32744	28048
189	0	33052	32740	28052
190	0	33044	32732	28052
191	0	33044	32732	28066
192	0	33040	32736	28086
193	0	33032	32732	28080
194	0	33040	32740	28096
195	0	33032	32716	28112
196	0	33016	32724	28152
197	0	33016	32736	28148
198	0	33016	32732	28156
199	0	33016	32728	28153
200	0	33008	32740	28157
201	0	33032	32740	28168
202	0	33038	32734	28160
203	0	33028	32724	28168
204	0	33020	32712	28176
205	0	33028	32712	28168
206	0	33036	32716	28173
207	0	33036	32704	28164
208	0	33044	32724	28156
209	0	33056	32720	28157
210	0	33076	32720	28152
211	0	33072	32704	28152
212	0	33076	32696	28165
213	0	33080	32700	28168
214	0	33072	32704	28172
215	0	33068	32696	28180
216	0	33072	32704	28184
217	0	33072	32708	28180
218	0	33056	32708	28192
219	0	33056	32704	28201
220	0	33048	32712	28224
221	0	33048	32708	28204
222	0	33044	32704	28204
223	0	33044	32712	28216
224	0	33044	32712	28220
225	0	33048	32704	28216
226	0	33040	32716	28216
227	0	33032	32712	28212
228	0	33036	32720	28208
229	0	33036	32720	28196
230	0	33032	32724	28196
231	0	33040	32733	28200
232	0	33032	32724	28192
233	0	33032	32728	28188
234	0	33032	32724	28184
235	0	33028	32720	28196
236	0	33028	32713	28184
237	0	33032	32724	28160
238	0	33032	32732	28160
239	0	33014	32732	28148
240	0	33008	32740	28172
241	0	33004	32748	28184
242	0	32988	32760	28185
243	0	32984	32768	28180
244	0	32976	32764	28176
245	0	32990	32765	28152
246	0	32976	32768	28156
247	0	32968	32775	28164
248	0	32972	32772	28164
249	0	32964	32768	28184
250	0	32958	32776	28164
251	0	32936	32784	28144
252	0	32948	32780	28160
253	0	32960	32784	28137
254	0	32944	32784	28125
255	0	32944	32772	28137
256	0	32948	32772	28129
257	0	32960	32780	28128
258	0	32960	32772	28128
259	0	32956	32766	28128
260	0	32948	32764	28128
261	0	32944	32768	28120
262	0	32952	32788	28112
263	0	32952	32805	28126
264	0	32952	32800	28140
265	0	32960	32792	28120
266	0	32976	32788	28116
267	0	32960	32804	28132
268	0	32972	32788	28136
269	0	32960	32800	28136
270	0	32952	32796	28144
271	0	32956	32792	28156
272	0	32952	32792	28148
273	0	32952	32798	28128
274	0	32956	32797	28136
275	0	32960	32798	28120
276	0	32964	32792	28156
277	0	32968	32800	28116
278	0	32989	32784	28120
279	0	32984	32788	28132
280	0	32984	32788	28144
281	0	32980	32776	28144
282	0	32976	32788	28124
283	0	32993	32784	28112
284	0	33008	32760	28116
285	0	33000	32788	28116
286	0	33001	32790	28096
287	0	33016	32792	28069
288	0	33008	32789	28072
289	0	33008	32785	28076
290	0	33008	32808	28060
291	0	33008	32804	28068
292	0	33024	32804	28056
293	0	33028	32804	28045
294	0	33040	32800	28056
295	0	33044	32796	28060
296	0	33028	32792	28072
297	0	33024	32796	28084
298	0	33016	32796	28088
299	0	33012	32807	28076
300	0	32996	32792	28105
301	0	33016	32792	28120
302	0	33000	32792	28124
303	0	33016	32776	28116
304	0	32996	32780	28128
305	0	32980	32796	28144
306	0	32969	32792	28148
307	0	32976	32789	28164
308	0	32976	32792	28176
309	0	32980	32772	28164
310	0	32964	32776	28156
311	0	32976	32777	28136
312	0	32972	32776	28128
313	0	32976	32764	28128
314	0	32976	32756	28100
315	0	32972	32768	28092
316	0	32980	32760	28088
317	0	32992	32752	28076
318	0	32996	32744	28072
319	0	33004	32736	28080
320	0	33008	32736	28088
321	0	33012	32740	28088
322	0	33012	32736	28116
323	0	33020	32732	28132
324	0	33008	32736	28128
325	0	33016	32736	28129
326	0	33012	32740	28133
327	0	33008	32732	28149
328	0	33004	32728	28168
329	0	33000	32724	28160
330	0	33000	32732	28181
331	0	32996	32712	28184
332	0	33000	32712	28164
333	0	33004	32712	28152
334	0	32988	32717	28124
335	0	32976	32732	28116
336	0	32980	32713	28108
337	0	32972	32736	28093
338	0	32972	32736	28076
339	0	32972	32736	28056
340	0	32984	32734	28064
341	0	32988	32737	28056
342	0	33004	32724	28033
343	0	32992	32744	28044
344	0	32992	32748	28036
345	0	33000	32752	28052
346	0	32992	32756	28048
347	0	32996	32748	28068
348	0	32996	32756	28084
349	0	32996	32752	28085
350	0	33004	32740	28088
351	0	33016	32740	28112
352	0	33016	32732	28096
353	0	33004	32736	28112
354	0	33008	32745	28112
355	0	33016	32732	28104
356	0	33004	32724	28120
357	0	33008	32724	28116
358	0	33016	32720	28128
359	0	33004	32720	28136
360	0	33012	32720	28140
361	0	33012	32708	28120
362	0	33008	32704	28124
363	0	33008	32712	28109
364	0	33012	32700	28124
365	0	33016	32708	28132
366	0	33021	32712	28124
367	0	33028	32704	28124
368	0	33052	32704	28120
369	0	33056	32700	28132
370	0	33064	32696	28133
371	0	33060	32712	28140
372	0	33072	32704	28136
373	0	33072	32712	28140
374	0	33072	32705	28136
375	0	33076	32704	28144
376	0	33076	32708	28132
377	0	33080	32708	28116
378	0	33072	32701	28112
379	0	33066	32704	28108
380	0	33072	32696	28100
381	0	33068	32688	28108
382	0	33056	32680	28096
383	0	33072	32668	28080
384	0	33064	32684	28072
385	0	33048	32716	28080
386	0	33044	32736	28060
387	0	33052	32756	28040
388	0	33053	32776	28012
389	0	33048	32792	27988
390	0	33040	32805	27996
391	0	33028	32808	27973
392	0	33024	32816	27932
393	0	33016	32816	27921
394	0	32996	32816	27904
395	0	32988	32816	27917
396	0	32968	32832	27916
397	0	32944	32816	27920
398	0	32928	32808	27954
399	0	32912	32804	27981
400	0	32904	32808	28016
401	0	32888	32801	28057
402	0	32872	32800	28092
403	0	32868	32788	28128
404	0	32880	32776	28156
405	0	32880	32776	28184
406	0	32880	32768	28196
407	0	32888	32756	28222
408	0	32896	32752	28240
409	0	32905	32756	28244
410	0	32924	32749	28228
411	0	32932	32728	28240
412	0	32956	32712	28244
413	0	32984	32704	28208
414	0	33004	32696	28200
415	0	33032	32685	28196
416	0	33053	32692	28176
417	0	33072	32700	28148
418	0	33104	32688	28124
419	0	33116	32684	28144
420	0	33132	32672	28140
421	0	33136	32668	28140
422	0	33140	32664	28116
423	0	33128	32668	28120
424	0	33112	32672	28148
425	0	33096	32665	28156
426	0	33088	32672	28161
427	0	33084	32664	28189
428	0	33064	32656	28200
429	0	33048	32656	28236
430	0	33036	32661	28236
431	0	33016	32668	28248
432	0	32992	32672	28256
433	0	32984	32676	28252
434	0	32964	32685	28256
435	0	32956	32684	28280
436	0	32964	32676	28305
437	0	32969	32677	28305
438	0	32968	32668	28300
439	0	32972	32674	28288
440	0	32968	32688	28276
441	0	32980	32696	28256
442	0	32996	32686	28240
443	0	33000	32685	28224
444	0	33024	32684	28204
445	0	33020	32680	28193
446	0	33040	32688	28200
447	0	33048	32672	28188
448	0	33056	32672	28168
449	0	33072	32686	28148
450	0	33088	32685	28157
451	0	33088	32688	28140
452	0	33092	32672	28164
453	0	33096	32680	28153
454	0	33096	32676	28152
455	0	33088	32692	28140
456	0	33076	32696	28132
457	0	33080	32688	28140
458	0	33064	32700	28156
459	0	33072	32686	28164
460	0	33068	32688	28184
461	0	33052	32696	28192
462	0	33036	32708	28204
463	0	33032	32704	28196
464	0	33016	32705	28188
465	0	33008	32708	28192
466	0	33004	32708	28188
467	0	33008	32696	28196
468	0	33000	32708	28201
469	0	32992	32708	28196
470	0	33008	32704	28192
471	0	33000	32733	28168
472	0	33012	32712	28172
473	0	33040	32700	28156
474	0	33244	32704	28169
475	0	33544	32712	28168
476	0	33772	32724	28168
477	0	33912	32712	28200
478	0	33952	32720	28220
479	0	33904	32696	28220
480	0	33788	32704	28208
481	0	33656	32696	28208
482	0	33524	32688	28192
483	0	33404	32700	28200
484	0	33305	32712	28208
485	0	33224	32716	28205
486	0	33160	32716	28216
487	0	33117	32709	28216
488	0	33096	32712	28228
489	0	33052	32724	28220
490	0	32984	32712	28200
491	0	32840	32696	28152
492	0	32536	32648	28024
493	0	32272	32608	27877
494	0	32168	32612	27820
495	0	32244	32668	27912
496	0	32456	32704	28020
497	0	32672	32729	28097
498	0	32832	32736	28172
499	0	32944	32733	28228
500	0	33016	32750	28272
501	0	33032	32736	28308
502	0	32988	32736	28336
503	0	32936	32736	28332
504	0	32888	32740	28336
505	0	32872	32732	28317
506	0	32856	32740	28320
507	0	32848	32744	28332
508	0	32872	32752	28320
509	0	32900	32748	28320
510	0	32936	32752	28316
511	0	32960	32744	28308
512	0	32988	32748	28280
513	0	32996	32752	28281
514	0	33004	32756	28277
515	0	32996	32764	28244
516	0	32969	32777	28196
517	0	32960	32777	28168
518	0	32968	32780	28160
519	0	32960	32773	28164
520	0	32944	32766	28152
521	0	32928	32780	28120
522	0	32936	32780	28112
523	0	32920	32780	28104
524	0	32916	32768	28089
525	0	32928	32772	28060
526	0	32916	32776	28040
527	0	32924	32788	28012
528	0	32940	32788	27992
529	0	32976	32796	27976
530	0	32992	32788	27964
531	0	32996	32797	27952
532	0	33016	32800	27932
533	0	33036	32804	27900
534	0	33024	32804	27877
535	0	33028	32800	27860
536	0	33040	32804	27848
537	0	33040	32800	27844
538	0	33024	32804	27856
539	0	33024	32804	27864
540	0	33016	32800	27892
541	0	33004	32804	27896
542	0	32992	32792	27914
543	0	32984	32768	27916
544	0	32968	32780	27940
545	0	32968	32776	27936
546	0	32976	32773	27948
547	0	32972	32772	27968
548	0	32984	32760	27980
549	0	32992	32764	28008
550	0	33004	32768	28000
551	0	32996	32768	27998
552	0	32996	32756	28016
553	0	33016	32748	28032
554	0	33028	32752	28052
555	0	33040	32740	28061
556	0	33060	32740	28080
557	0	33064	32740	28096
558	0	33076	32750	28112
559	0	33076	32736	28112
560	0	33076	32752	28132
561	0	33076	32752	28172
562	0	33088	32736	28168
563	0	33096	32732	28172
564	0	33096	32724	28168
565	0	33104	32716	28188
566	0	33116	32712	28184
567	0	33112	32720	28208
568	0	33112	32725	28237
569	0	33112	32728	28256
570	0	33112	32724	28280
571	0	33120	32722	28292
572	0	33120	32716	28308
573	0	33124	32712	28308
574	0	33128	32720	28300
575	0	33120	32724	28304
576	0	33132	32732	28300
577	0	33132	32724	28308
578	0	33132	32732	28308
579	0	33124	32740	28280
580	0	33120	32736	28265
581	0	33116	32728	28244
582	0	33116	32720	28229
583	0	33116	32724	28216
584	0	33112	32724	28188
585	0	33128	32724	28180
586	0	33112	32720	28168
587	0	33112	32716	28160
588	0	33112	32716	28157
589	0	33124	32720	28125
590	0	33116	32720	28128
591	0	33120	32740	28140
592	0	33108	32741	28140
593	0	33104	32740	28126
594	0	33112	32724	28132
595	0	33124	32712	28129
596	0	33104	32725	28148
597	0	33088	32732	28144
598	0	33084	32736	28128
599	0	33089	32728	28132
600	0	33088	32730	28127
601	0	33080	32728	28112
602	0	33084	32740	28101
603	0	33072	32736	28101
604	0	33092	32728	28085
605	0	33080	32740	28084
606	0	33080	32736	28084
607	0	33088	32729	28080
608	0	33096	32728	28060
609	0	33092	32740	28068
610	0	33096	32760	28072
611	0	33104	32757	28076
612	0	33088	32748	28088
613	0	33076	32756	28088
614	0	33072	32745	28112
615	0	33100	32732	28108
616	0	33084	32756	28104
617	0	33088	32752	28100
618	0	33092	32744	28093
619	0	33096	32752	28100
620	0	33112	32765	28100
621	0	33124	32760	28108
622	0	33132	32749	28101
623	0	33140	32752	28104
624	0	33144	32752	28125
625	0	33148	32760	28112
626	0	33172	32764	28108
627	0	33188	32772	28100
628	0	33192	32760	28100
629	0	33212	32748	28092
630	0	33204	32752	28080
631	0	33201	32752	28068
632	0	33200	32765	28080
633	0	33192	32756	28060
634	0	33192	32752	28064
635	0	33168	32752	28072
636	0	33156	32748	28065
637	0	33144	32752	28084
638	0	33132	32750	28084
639	0	33128	32760	28072
640	0	33132	32768	28072
641	0	33132	32756	28056
642	0	33128	32764	28044
643	0	33145	32752	28028
644	0	33148	32752	28040
645	0	33136	32756	28032
646	0	33152	32740	28032
647	0	33164	32740	28024
648	0	33184	32732	28016
649	0	33196	32736	28017
650	0	33188	32740	28036
651	0	33200	32740	28053
652	0	33216	32724	28062
653	0	33216	32732	28088
654	0	33224	32724	28084
655	0	33232	32728	28097
656	0	33244	32728	28111
657	0	33252	32712	28090
658	0	33256	32724	28104
659	0	33276	32728	28106
660	0	33272	32728	28120
661	0	33272	32728	28120
662	0	33292	32729	28120
663	0	33296	32728	28122
664	0	33300	32724	28120
665	0	33308	32724	28118
666	0	33296	32716	28112
667	0	33296	32720	28129
668	0	33296	32725	28136
669	0	33276	32728	28134
670	0	33284	32740	28116
671	0	33281	32728	28124
672	0	33280	32728	28116
673	0	33264	32728	28128
674	0	33256	32732	28132
675	0	33248	32724	28138
676	0	33248	32732	28160
677	0	33240	32736	28168
678	0	33236	32735	28184
679	0	33232	32736	28180
680	0	33236	32732	28184
681	0	33220	32732	28181
682	0	33208	32733	28193
683	0	33204	32724	28189
684	0	33201	32728	28196
685	0	33208	32720	28212
686	0	33216	32724	28213
687	0	33216	32712	28208
688	0	33212	32713	28200
689	0	33224	32712	28198
690	0	33220	32708	28216
691	0	33224	32722	28208
692	0	33216	32728	28208
693	0	33216	32728	28225
694	0	33224	32716	28204
695	0	33232	32696	28196
696	0	33236	32700	28216
697	0	33232	32700	28212
698	0	33228	32700	28236
699	0	33256	32696	28220
700	0	33252	32696	28220
701	0	33256	32708	28240
702	0	33260	32714	28244
703	0	33264	32716	28260
704	0	33280	32704	28252
705	0	33284	32686	28236
706	0	33288	32684	28236
707	0	33288	32692	28240
708	0	33284	32704	28208
709	0	33273	32696	28216
710	0	33289	32688	28184
711	0	33292	32680	28149
712	0	33288	32680	28137
713	0	33288	32680	28144
714	0	33280	32688	28124
715	0	33288	32692	28108
716	0	33296	32692	28084
717	0	33300	32692	28068
718	0	33316	32684	28064
719	0	33320	32684	28060
720	0	33336	32680	28048
721	0	33344	32677	28048
722	0	33352	32676	28064
723	0	33352	32696	28052
724	0	33352	32696	28068
725	0	33360	32696	28076
726	0	33360	32704	28073
727	0	33372	32708	28064
728	0	33368	32708	28076
729	0	33380	32702	28094
730	0	33376	32704	28082
731	0	33376	32712	28080
732	0	33389	32704	28060
733	0	33392	32704	28080
734	0	33392	32692	28072
735	0	33396	32692	28080
736	0	33416	32672	28102
737	0	33440	32676	28096
738	0	33472	32692	28088
739	0	33496	32697	28084
740	0	33528	32700	28088
741	0	33564	32696	28108
742	0	33564	32688	28116
743	0	33600	32664	28134
744	0	33616	32660	28136
745	0	33628	32664	28136
746	0	33628	32652	28128
747	0	33656	32652	28113
748	0	33648	32661	28096
749	0	33656	32656	28096
750	0	33656	32652	28104
751	0	33664	32652	28108
752	0	33664	32664	28093
753	0	33672	32660	28072
754	0	33668	32660	28084
755	0	33664	32668	28116
756	0	33672	32668	28132
757	0	33664	32668	28152
758	0	33672	32660	28160
759	0	33680	32656	28148
760	0	33688	32648	28172
761	0	33688	32644	28196
762	0	33693	32648	28200
763	0	33712	32636	28204
764	0	33720	32632	28216
765	0	33720	32636	28225
766	0	33740	32637	28256
767	0	33744	32628	28244
768	0	33704	32628	28260
769	0	33696	32636	28260
770	0	33700	32640	28260
771	0	33716	32628	28268
772	0	33720	32624	28274
773	0	33708	32628	28292
774	0	33720	32616	28280
775	0	33716	32616	28276
776	0	33712	32620	28264
777	0	33700	32616	28254
778	0	33704	32600	28240
779	0	33696	32568	28236
780	0	33692	32552	28256
781	0	33688	32540	28264
782	0	33712	32512	28276
783	0	33764	32572	28264
784	0	33788	32676	28260
785	0	33796	32736	28236
786	0	33740	32768	28222
787	0	33712	32776	28212
788	0	33720	32728	28236
789	0	33776	32696	28260
790	0	33816	32680	28302
791	0	33844	32672	28300
792	0	33848	32676	28288
793	0	33836	32684	28280
794	0	33844	32681	28280
795	0	33848	32708	28272
796	0	33852	32712	28280
797	0	33852	32700	28284
798	0	33860	32688	28297
799	0	33888	32672	28308
800	0	33876	32673	28300
801	0	33876	32652	28272
802	0	33872	32652	28257
803	0	33872	32660	28272
804	0	33880	32652	28268
805	0	33880	32648	28276
806	0	33892	32640	28280
807	0	33880	32652	28288
808	0	33880	32652	28288
809	0	33888	32660	28272
810	0	33884	32656	28280
811	0	33888	32660	28272
812	0	33896	32672	28280
813	0	33912	32668	28252
814	0	33908	32680	28248
815	0	33920	32672	28224
816	0	33916	32684	28233
817	0	33920	32672	28220
818	0	33920	32676	28228
819	0	33944	32684	28233
820	0	33944	32665	28220
821	0	33968	32676	28205
822	0	33976	32664	28204
823	0	33976	32668	28212
824	0	33968	32680	28220
825	0	33980	32676	28224
826	0	34008	32672	28225
827	0	34040	32674	28224
828	0	34064	32656	28232
829	0	34096	32669	28224
830	0	34120	32660	28240
831	0	34140	32672	28261
832	0	34177	32676	28256
833	0	34208	32672	28256
834	0	34240	32668	28248
835	0	34248	32664	28256
836	0	34276	32680	28252
837	0	34284	32672	28253
838	0	34304	32668	28268
839	0	34324	32660	28272
840	0	34340	32668	28268
841	0	34360	32668	28260
842	0	34376	32668	28253
843	0	34396	32660	28264
844	0	34420	32652	28268
845	0	34424	32660	28284
846	0	34448	32652	28280
847	0	34460	32636	28294
848	0	34468	32624	28316
849	0	34488	32608	28333
850	0	34504	32620	28352
851	0	34504	32608	28364
852	0	34512	32612	28356
853	0	34516	32612	28368
854	0	34504	32620	28380
855	0	34496	32636	28388
856	0	34496	32632	28412
857	0	34489	32637	28444
858	0	34488	32660	28452
859	0	34496	32668	28464
860	0	34504	32648	28473
861	0	34513	32640	28468
862	0	34540	32640	28464
863	0	34536	32648	28452
864	0	34568	32624	28452
865	0	34588	32624	28456
866	0	34608	32620	28472
867	0	34612	32616	28488
868	0	34640	32608	28516
869	0	34664	32609	28532
870	0	34681	32624	28544
871	0	34712	32628	28552
872	0	34724	32616	28548
873	0	34736	32623	28553
874	0	34748	32640	28568
875	0	34744	32636	28556
876	0	34752	32628	28556
877	0	34752	32628	28560
878	0	34752	32624	28564
879	0	34740	32656	28544
880	0	34724	32648	28552
881	0	34720	32660	28524
882	0	34716	32676	28520
883	0	34704	32676	28516
884	0	34704	32676	28508
885	0	34684	32684	28508
886	0	34688	32692	28508
887	0	34680	32692	28529
888	0	34696	32696	28544
889	0	34708	32678	28552
890	0	34712	32684	28536
891	0	34728	32676	28540
892	0	34740	32684	28536
893	0	34748	32688	28528
894	0	34764	32688	28556
895	0	34760	32700	28560
896	0	34772	32700	28560
897	0	34776	32700	28568
898	0	34792	32688	28556
899	0	34792	32693	28556
900	0	34816	32692	28556
901	0	34808	32698	28548
902	0	34812	32688	28544
903	0	34812	32704	28540
904	0	34828	32704	28536
905	0	34828	32704	28516
906	0	34828	32692	28524
907	0	34836	32696	28532
908	0	34844	32684	28544
909	0	34860	32664	28545
910	0	34864	32652	28521
911	0	34872	32652	28520
912	0	34872	32660	28504
913	0	34884	32648	28508
914	0	34892	32652	28508
915	0	34904	32660	28504
916	0	34908	32636	28488
917	0	34912	32645	28472
918	0	34920	32647	28484
919	0	34940	32644	28477
920	0	34952	32636	28481
921	0	34968	32652	28484
922	0	34980	32664	28490
923	0	34992	32660	28508
924	0	35012	32656	28520
925	0	35032	32660	28512
926	0	35064	32648	28536
927	0	35056	32652	28544
928	0	35060	32645	28528
929	0	35064	32664	28548
930	0	35100	32656	28545
931	0	35108	32660	28544
932	0	35124	32652	28561
933	0	35156	32644	28572
934	0	35196	32632	28580
935	0	35228	32636	28564
936	0	35252	32632	28568
937	0	35272	32640	28568
938	0	35304	32652	28572
939	0	35312	32650	28565
940	0	35324	32640	28540
941	0	35324	32632	28552
942	0	35344	32632	28548
943	0	35341	32620	28556
944	0	35332	32616	28576
945	0	35340	32612	28584
946	0	35332	32616	28568
947	0	35312	32608	28562
948	0	35304	32600	28573
949	0	35312	32608	28584
950	0	35304	32604	28600
951	0	35308	32616	28580
952	0	35312	32612	28588
953	0	35304	32617	28605
954	0	35296	32612	28620
955	0	35308	32624	28640
956	0	35312	32622	28672
957	0	35320	32620	28700
958	0	35312	32616	28713
959	0	35296	32620	28744
960	0	35312	32608	28764
961	0	35312	32588	28772
962	0	35340	32584	28785
963	0	35344	32580	28760
964	0	35344	32584	28772
965	0	35336	32568	28788
966	0	35332	32564	28782
967	0	35328	32576	28796
968	0	35332	32576	28805
969	0	35336	32588	28848
970	0	35368	32568	28825
971	0	35388	32564	28828
972	0	35400	32564	28832
973	0	35408	32560	28852
974	0	35396	32572	28852
975	0	35412	32576	28865
976	0	35428	32560	28868
977	0	35428	32560	28882
978	0	35440	32544	28892
979	0	35440	32556	28912
980	0	35456	32540	28908
981	0	35472	32532	28904
982	0	35488	32532	28922
983	0	35520	32528	28944
984	0	35524	32532	28952
985	0	35540	32516	28960
986	0	35544	32504	28965
987	0	35540	32504	28996
988	0	35548	32516	28996
989	0	35524	32512	28996
990	0	35512	32504	29009
991	0	35528	32496	29008
992	0	35520	32492	29024
993	0	35508	32484	29052
994	0	35500	32476	29056
995	0	35488	32480	29044
996	0	35500	32476	29029
997	0	35512	32488	29044
998	0	35508	32484	29069
999	0	35520	32492	29092
1000	0	35552	32504	29096
1001	0	35581	32496	29112
1002	0	35608	32488	29128
1003	0	35616	32492	29164
1004	0	35644	32512	29173
1005	0	35680	32521	29200
1006	0	35712	32528	29232
1007	0	35788	32536	29257
1008	0	35836	32560	29268
1009	0	35888	32560	29296
1010	0	35956	32560	29316
1011	0	36008	32564	29316
1012	0	36048	32564	29340
1013	0	36064	32577	29360
1014	0	36112	32560	29376
1015	0	36160	32552	29408
1016	0	36200	32568	29405
1017	0	36224	32584	29384
1018	0	36256	32584	29384
1019	0	36292	32588	29389
1020	0	36288	32612	29396
1021	0	36288	32608	29400
1022	0	36312	32632	29400
1023	0	36336	32637	29392
1024	0	36344	32636	29406
1025	0	36336	32648	29428
1026	0	36340	32653	29424
1027	0	36348	32652	29436
1028	0	36332	32656	29452
1029	0	36340	32656	29428
1030	0	36336	32668	29444
1031	0	36332	32664	29444
1032	0	36336	32684	29460
1033	0	36328	32672	29460
1034	0	36332	32684	29488
1035	0	36340	32680	29492
1036	0	36345	32676	29496
1037	0	36344	32680	29524
1038	0	36352	32684	29528
1039	0	36360	32692	29518
1040	0	36348	32684	29545
1041	0	36352	32680	29544
1042	0	36352	32680	29556
1043	0	36348	32676	29572
1044	0	36336	32684	29588
1045	0	36328	32677	29584
1046	0	36344	32688	29588
1047	0	36320	32692	29600
1048	0	36312	32704	29632
1049	0	36312	32692	29644
1050	0	36328	32692	29640
1051	0	36332	32684	29649
1052	0	36324	32684	29652
1053	0	36336	32677	29660
1054	0	36328	32676	29664
1055	0	36337	32660	29672
1056	0	36336	32668	29700
1057	0	36352	32660	29700
1058	0	36352	32652	29716
1059	0	36372	32644	29716
1060	0	36392	32644	29716
1061	0	36384	32652	29712
1062	0	36392	32634	29752
1063	0	36396	32636	29788
1064	0	36424	32628	29816
1065	0	36428	32636	29848
1066	0	36440	32637	29852
1067	0	36432	32646	29860
1068	0	36428	32621	29884
1069	0	36424	32640	29888
1070	0	36424	32628	29888
1071	0	36468	32664	29912
1072	0	36632	32840	29912
1073	0	36708	32800	29912
1074	0	36696	32620	29976
1075	0	36604	32448	29985
1076	0	36496	32416	29984
1077	0	36404	32436	29928
1078	0	36332	32456	29932
1079	0	36321	32480	29920
1080	0	36356	32513	29916
1081	0	36420	32560	29917
1082	0	36484	32608	29916
1083	0	36536	32636	29913
1084	0	36536	32692	29912
1085	0	36536	32728	29884
1086	0	36492	32736	29860
1087	0	36444	32764	29844
1088	0	36424	32768	29840
1089	0	36424	32756	29844
1090	0	36452	32736	29848
1091	0	36464	32712	29868
1092	0	36488	32700	29880
1093	0	36532	32684	29897
1094	0	36576	32677	29904
1095	0	36584	32684	29925
1096	0	36593	32680	29932
1097	0	36592	32684	29940
1098	0	36620	32676	29928
1099	0	36620	32684	29928
1100	0	36624	32692	29928
1101	0	36640	32692	29952
1102	0	36664	32676	29924
1103	0	36680	32672	29920
1104	0	36696	32684	29904
1105	0	36704	32672	29908
1106	0	36716	32676	29916
1107	0	36728	32664	29924
1108	0	36736	32668	29932
1109	0	36752	32664	29917
1110	0	36760	32668	29932
1111	0	36780	32656	29960
1112	0	36788	32656	29956
1113	0	36800	32664	29952
1114	0	36808	32668	29944
1115	0	36804	32672	29945
1116	0	36824	32684	29962
1117	0	36816	32680	29969
1118	0	36812	32684	29948
1119	0	36820	32696	29972
1120	0	36828	32684	29988
1121	0	36820	32696	29988
1122	0	36832	32684	30009
1123	0	36840	32688	30020
1124	0	36836	32676	30040
1125	0	36832	32688	30068
1126	0	36840	32692	30060
1127	0	36848	32692	30080
1128	0	36860	32684	30080
1129	0	36852	32688	30096
1130	0	36864	32688	30108
1131	0	36868	32672	30132
1132	0	36880	32676	30124
1133	0	36900	32660	30128
1134	0	36912	32672	30124
1135	0	36908	32668	30138
1136	0	36908	32669	30144
1137	0	36912	32668	30160
1138	0	36912	32668	30192
1139	0	36900	32686	30184
1140	0	36912	32688	30200
1141	0	36912	32688	30216
1142	0	36932	32680	30212
1143	0	36912	32684	30224
1144	0	36908	32692	30232
1145	0	36908	32700	30228
1146	0	36920	32704	30232
1147	0	36904	32704	30232
1148	0	36904	32700	30204
1149	0	36924	32696	30216
1150	0	36912	32712	30232
1151	0	36912	32716	30252
1152	0	36920	32712	30248
1153	0	36916	32724	30264
1154	0	36932	32716	30260
1155	0	36928	32716	30264
1156	0	36928	32716	30254
1157	0	36944	32716	30268
1158	0	36948	32724	30272
1159	0	36948	32728	30273
1160	0	36952	32740	30276
1161	0	36960	32728	30276
1162	0	36976	32732	30277
1163	0	37000	32736	30280
1164	0	37000	32740	30276
1165	0	37016	32732	30288
1166	0	37032	32728	30304
1167	0	37056	32732	30316
1168	0	37056	32732	30332
1169	0	37072	32736	30336
1170	0	37084	32728	30368
1171	0	37088	32736	30396
1172	0	37112	32728	30404
1173	0	37112	32728	30433
1174	0	37120	32728	30444
1175	0	37140	32728	30456
1176	0	37136	32733	30468
1177	0	37144	32728	30488
1178	0	37144	32724	30496
1179	0	37164	32712	30516
1180	0	37168	32720	30512
1181	0	37192	32708	30520
1182	0	37200	32704	30524
1183	0	37212	32696	30528
1184	0	37204	32693	30553
1185	0	37200	32712	30560
1186	0	37224	32709	30580
1187	0	37232	32708	30580
1188	0	37240	32684	30596
1189	0	37244	32696	30608
1190	0	37248	32716	30580
1191	0	37232	32724	30588
1192	0	37224	32716	30592
1193	0	37216	32724	30596
1194	0	37208	32736	30604
1195	0	37196	32724	30612
1196	0	37204	32705	30624
1197	0	37200	32716	30616
1198	0	37188	32708	30616
1199	0	37176	32716	30628
1200	0	37192	32712	30644
1201	0	37192	32728	30656
1202	0	37184	32724	30656
1203	0	37184	32732	30672
1204	0	37184	32736	30680
1205	0	37184	32732	30672
1206	0	37184	32740	30685
1207	0	37192	32732	30688
1208	0	37176	32732	30688
1209	0	37164	32752	30692
1210	0	37168	32752	30696
1211	0	37148	32760	30700
1212	0	37160	32756	30692
1213	0	37168	32756	30688
1214	0	37184	32752	30656
1215	0	37168	32760	30656
1216	0	37160	32766	30644
1217	0	37160	32756	30620
1218	0	37156	32760	30608
1219	0	37152	32756	30596
1220	0	37152	32760	30601
1221	0	37136	32764	30596
1222	0	37140	32760	30588
1223	0	37144	32760	30608
1224	0	37148	32748	30608
1225	0	37144	32752	30612
1226	0	37160	32752	30616
1227	0	37160	32752	30625
1228	0	37168	32744	30632
1229	0	37168	32740	30632
1230	0	37184	32748	30640
1231	0	37172	32752	30664
1232	0	37180	32760	30660
1233	0	37192	32752	30652
1234	0	37188	32756	30637
1235	0	37196	32764	30632
1236	0	37200	32756	30652
1237	0	37200	32756	30644
1238	0	37216	32744	30640
1239	0	37216	32724	30668
1240	0	37200	32744	30664
1241	0	37204	32733	30686
1242	0	37200	32728	30682
1243	0	37200	32736	30708
1244	0	37192	32728	30724
1245	0	37192	32724	30748
1246	0	37204	32720	30752
1247	0	37216	32732	30764
1248	0	37212	32724	30768
1249	0	37216	32716	30796
1250	0	37212	32724	30816
1251	0	37208	32716	30832
1252	0	37196	32724	30852
1253	0	37200	32720	30852
1254	0	37204	32716	30856
1255	0	37208	32696	30864
1256	0	37220	32688	30896
1257	0	37208	32684	30908
1258	0	37208	32672	30909
1259	0	37216	32672	30920
1260	0	37216	32680	30920
1261	0	37220	32680	30896
1262	0	37224	32688	30896
1263	0	37228	32692	30896
1264	0	37240	32700	30912
1265	0	37252	32676	30896
1266	0	37256	32688	30920
1267	0	37284	32672	30944
1268	0	37308	32676	30932
1269	0	37304	32684	30944
1270	0	37312	32696	30968
1271	0	37312	32692	30976
1272	0	37324	32684	30965
1273	0	37324	32668	30992
1274	0	37340	32676	31004
1275	0	37340	32680	31024
1276	0	37336	32682	31036
1277	0	37344	32688	31036
1278	0	37336	32684	31052
1279	0	37328	32689	31036
1280	0	37320	32688	31032
1281	0	37316	32696	31028
1282	0	37308	32692	31024
1283	0	37288	32684	31048
1284	0	37296	32676	31052
1285	0	37292	32696	31052
1286	0	37272	32696	31048
1287	0	37280	32692	31052
1288	0	37272	32704	31044
1289	0	37284	32704	31037
1290	0	37288	32708	31024
1291	0	37288	32696	31036
1292	0	37304	32704	31024
1293	0	37304	32692	31016
1294	0	37304	32704	31004
1295	0	37304	32696	31032
1296	0	37312	32700	31028
1297	0	37308	32704	31032
1298	0	37312	32712	31036
1299	0	37312	32704	31044
1300	0	37328	32709	31028
1301	0	37324	32732	31024
1302	0	37320	32720	31032
1303	0	37336	32712	31024
1304	0	37348	32708	31036
1305	0	37352	32728	31032
1306	0	37352	32732	31020
1307	0	37352	32740	31016
1308	0	37360	32721	31012
1309	0	37364	32732	31020
1310	0	37368	32744	31024
1311	0	37372	32740	31024
1312	0	37360	32744	31034
1313	0	37360	32736	31040
1314	0	37360	32732	31044
1315	0	37376	32724	31064
1316	0	37380	32720	31056
1317	0	37372	32732	31056
1318	0	37364	32736	31060
1319	0	37380	32752	31060
1320	0	37380	32744	31056
1321	0	37368	32752	31066
1322	0	37368	32752	31072
1323	0	37368	32744	31086
1324	0	37360	32732	31084
1325	0	37360	32748	31084
1326	0	37340	32764	31068
1327	0	37336	32760	31084
1328	0	37344	32768	31040
1329	0	37352	32764	31036
1330	0	37360	32764	31025
1331	0	37360	32764	31020
1332	0	37368	32764	31040
1333	0	37400	32748	31032
1334	0	37392	32741	31028
1335	0	37400	32744	31040
1336	0	37404	32732	31056
1337	0	37408	32736	31048
1338	0	37404	32736	31040
1339	0	37404	32728	31032
1340	0	37400	32740	31048
1341	0	37408	32736	31056
1342	0	37412	32740	31052
1343	0	37408	32756	31049
1344	0	37416	32756	31044
1345	0	37424	32740	31056
1346	0	37428	32744	31080
1347	0	37456	32740	31088
1348	0	37456	32736	31076
1349	0	37456	32736	31072
1350	0	37460	32737	31100
1351	0	37472	32732	31108
1352	0	37464	32748	31152
1353	0	37464	32740	31176
1354	0	37488	32732	31200
1355	0	37480	32732	31200
1356	0	37468	32736	31224
1357	0	37472	32724	31224
1358	0	37480	32720	31240
1359	0	37488	32736	31253
1360	0	37488	32732	31288
1361	0	37496	32724	31312
1362	0	37496	32732	31328
1363	0	37508	32734	31336
1364	0	37504	32728	31336
1365	0	37504	32724	31356
1366	0	37516	32716	31356
1367	0	37496	32720	31344
1368	0	37500	32720	31336
1369	0	37516	32712	31332
1370	0	37492	32700	31324
1371	0	37500	32704	31328
1372	0	37500	32696	31320
1373	0	37488	32704	31300
1374	0	37496	32700	31316
1375	0	37488	32700	31332
1376	0	37484	32693	31320
1377	0	37472	32688	31320
1378	0	37469	32696	31320
1379	0	37468	32688	31328
1380	0	37468	32688	31360
1381	0	37488	32692	31388
1382	0	37488	32677	31380
1383	0	37492	32684	31380
1384	0	37496	32685	31384
1385	0	37488	32696	31380
1386	0	37488	32700	31404
1387	0	37484	32688	31440
1388	0	37488	32688	31456
1389	0	37480	32704	31460
1390	0	37472	32708	31460
1391	0	37476	32720	31456
1392	0	37456	32716	31456
1393	0	37468	32732	31452
1394	0	37480	32740	31460
1395	0	37480	32744	31460
1396	0	37488	32740	31452
1397	0	37496	32732	31437
1398	0	37512	32724	31452
1399	0	37496	32730	31448
1400	0	37508	32736	31440
1401	0	37500	32728	31424
1402	0	37496	32720	31436
1403	0	37480	32728	31444
1404	0	37472	32736	31436
1405	0	37472	32732	31424
1406	0	37464	32748	31420
1407	0	37460	32740	31416
1408	0	37468	32740	31440
1409	0	37480	32748	31444
1410	0	37476	32752	31448
1411	0	37476	32752	31461
1412	0	37472	32752	31460
1413	0	37480	32757	31492
1414	0	37488	32756	31508
1415	0	37480	32776	31496
1416	0	37488	32792	31492
1417	0	37480	32804	31520
1418	0	37500	32830	31512
1419	0	37496	32824	31516
1420	0	37484	32820	31524
1421	0	37504	32798	31500
1422	0	37488	32784	31496
1423	0	37484	32768	31472
1424	0	37488	32748	31452
1425	0	37501	32736	31452
1426	0	37504	32744	31448
1427	0	37512	32764	31500
1428	0	37536	32768	31560
1429	0	37560	32780	31608
1430	0	37576	32796	31628
1431	0	37584	32812	31676
1432	0	37592	32808	31704
1433	0	37608	32800	31724
1434	0	37616	32792	31724
1435	0	37616	32796	31726
1436	0	37616	32798	31736
1437	0	37632	32800	31768
1438	0	37628	32825	31769
1439	0	37648	32812	31796
1440	0	37664	32821	31816
1441	0	37672	32804	31844
1442	0	37672	32804	31852
1443	0	37672	32812	31856
1444	0	37676	32808	31864
1445	0	37680	32804	31852
1446	0	37684	32792	31860
1447	0	37684	32792	31856
1448	0	37672	32784	31872
1449	0	37680	32800	31880
1450	0	37696	32812	31924
1451	0	37728	32828	31940
1452	0	37748	32852	31984
1453	0	37784	32884	32021
1454	0	37816	32892	32020
1455	0	37824	32904	32020
1456	0	37820	32872	32004
1457	0	37796	32844	31996
1458	0	37808	32872	31996
1459	0	37824	32876	32000
1460	0	37800	32800	31992
1461	0	37736	32780	32008
1462	0	37756	32848	32032
1463	0	37764	32852	32052
1464	0	37768	32864	32084
1465	0	37752	32884	32112
1466	0	37752	32848	32132
1467	0	37732	32857	32164
1468	0	37720	32848	32180
1469	0	37708	32868	32212
1470	0	37720	32912	32256
1471	0	37712	32896	32264
1472	0	37712	32924	32272
1473	0	37720	32900	32268
1474	0	37688	32881	32264
1475	0	37668	32860	32245
1476	0	37656	32904	32264
1477	0	37664	32908	32280
1478	0	37656	32894	32308
1479	0	37676	32880	32312
1480	0	37648	32880	32336
1481	0	37608	32869	32328
1482	0	37624	32912	32372
1483	0	37660	32928	32392
1484	0	37672	32917	32408
1485	0	37648	32884	32440
1486	0	37640	32900	32464
1487	0	37625	32912	32478
1488	0	37664	32921	32518
1489	0	37684	32940	32536
1490	0	37700	32936	32556
1491	0	37688	32936	32560
1492	0	37704	32952	32572
1493	0	37696	32960	32576
1494	0	37696	32960	32572
1495	0	37696	32960	32596
1496	0	37701	32964	32616
1497	0	37696	32964	32628
1498	0	37696	32975	32644
1499	0	37688	32976	32660
1500	0	37720	32968	32672
1501	0	37752	33008	32684
1502	0	37788	32996	32712
1503	0	37880	33080	32780
1504	0	37884	33080	32864
1505	0	37844	33000	32932
1506	0	37784	32892	32952
1507	0	37768	32828	32928
1508	0	37752	32820	32904
1509	0	37756	32856	32884
1510	0	37792	32900	32852
1511	0	37872	32928	32864
1512	0	37940	32928	32908
1513	0	37980	32950	32936
1514	0	38004	33012	32948
1515	0	38032	33036	32976
1516	0	38016	33008	33004
1517	0	38008	32956	33028
1518	0	38024	32976	33049
1519	0	38048	33072	33061
1520	0	38088	33156	33092
1521	0	38096	33216	33128
1522	0	38136	33232	33172
1523	0	38164	33224	33228
1524	0	38184	33196	33276
1525	0	38168	33176	33292
1526	0	38160	33160	33320
1527	0	38168	33124	33341
1528	0	38160	33116	33356
1529	0	38152	33108	33360
1530	0	38152	33092	33356
1531	0	38156	33100	33368
1532	0	38156	33088	33376
1533	0	38176	33080	33376
1534	0	38192	33100	33404
1535	0	38224	33156	33428
1536	0	38240	33136	33460
1537	0	38208	33084	33472
1538	0	38176	32996	33476
1539	0	38152	32960	33460
1540	0	38160	32965	33460
1541	0	38124	32976	33440
1542	0	38112	32964	33420
1543	0	38104	32924	33424
1544	0	38088	32920	33456
1545	0	38080	32943	33488
1546	0	38080	32940	33564
1547	0	38024	32924	33596
1548	0	37992	32924	33620
1549	0	37952	32960	33684
1550	0	37940	32980	33720
1551	0	37901	33013	33728
1552	0	37872	33000	33748
1553	0	37816	33008	33760
1554	0	37808	33077	33768
1555	0	37812	33084	33785
1556	0	37768	33052	33836
1557	0	37740	33008	33952
1558	0	37768	33016	34025
1559	0	37764	33034	34008
1560	0	37768	32992	33948
1561	0	37736	32984	33920
1562	0	37752	32984	33920
1563	0	37772	32996	33984
1564	0	37752	32988	34036
1565	0	37716	32974	34084
1566	0	37680	32964	34084
1567	0	37656	32928	34084
1568	0	37640	32925	34084
1569	0	37600	32924	34104
1570	0	37600	32928	34148
1571	0	37620	32944	34156
1572	0	37624	32992	34156
1573	0	37604	33020	34196
1574	0	37588	33060	34224
1575	0	37592	33077	34256
1576	0	37592	33088	34272
1577	0	37556	33096	34264
1578	0	37544	33112	34272
1579	0	37544	33116	34321
1580	0	37540	33100	34308
1581	0	37552	33088	34316
1582	0	37544	33092	34340
1583	0	37536	33064	34376
1584	0	37540	33080	34404
1585	0	37548	33064	34432
1586	0	37540	33072	34473
1587	0	37544	33064	34500
1588	0	37536	33064	34512
1589	0	37532	33064	34524
1590	0	37516	33048	34504
1591	0	37524	33040	34508
1592	0	37508	33048	34468
1593	0	37512	33028	34496
1594	0	37504	33024	34504
1595	0	37480	33040	34488
1596	0	37480	33024	34492
1597	0	37444	33016	34468
1598	0	37424	32992	34480
1599	0	37424	33000	34456
1600	0	37408	32976	34468
1601	0	37388	32984	34464
1602	0	37392	32976	34480
1603	0	37392	32965	34488
1604	0	37408	32953	34488
1605	0	37416	32956	34508
1606	0	37428	32957	34552
1607	0	37408	32952	34576
1608	0	37392	32928	34596
1609	0	37368	32900	34636
1610	0	37352	32905	34653
1611	0	37348	32920	34656
1612	0	37360	32928	34672
1613	0	37376	32948	34684
1614	0	37368	32964	34688
1615	0	37368	32964	34696
1616	0	37384	32960	34740
1617	0	37388	32944	34766
1618	0	37400	32942	34796
1619	0	37400	32948	34832
1620	0	37400	32952	34852
1621	0	37400	32960	34892
1622	0	37408	32952	34964
1623	0	37432	32944	35024
1624	0	37444	32936	35064
1625	0	37444	32948	35120
1626	0	37460	32940	35164
1627	0	37472	32924	35206
1628	0	37472	32940	35220
1629	0	37460	32936	35228
1630	0	37456	32924	35248
1631	0	37456	32925	35232
1632	0	37452	32896	35244
1633	0	37456	32880	35244
1634	0	37456	32864	35248
1635	0	37444	32848	35228
1636	0	37432	32832	35233
1637	0	37436	32828	35240
1638	0	37428	32820	35240
1639	0	37416	32820	35228
1640	0	37432	32788	35216
1641	0	37412	32783	35220
1642	0	37412	32764	35208
1643	0	37408	32748	35220
1644	0	37392	32720	35216
1645	0	37400	32696	35232
1646	0	37412	32680	35269
1647	0	37392	32674	35280
1648	0	37380	32668	35312
1649	0	37336	32648	35352
1650	0	37324	32628	35372
1651	0	37300	32652	35404
1652	0	37288	32668	35404
1653	0	37296	32680	35402
1654	0	37304	32681	35388
1655	0	37304	32692	35364
1656	0	37296	32681	35372
1657	0	37260	32676	35357
1658	0	37256	32686	35352
1659	0	37252	32672	35328
1660	0	37240	32668	35292
1661	0	37216	32664	35252
1662	0	37200	32652	35264
1663	0	37184	32660	35264
1664	0	37184	32661	35252
1665	0	37180	32648	35272
1666	0	37172	32664	35272
1667	0	37160	32660	35264
1668	0	37160	32640	35276
1669	0	37176	32644	35308
1670	0	37164	32644	35304
1671	0	37152	32634	35328
1672	0	37136	32644	35360
1673	0	37132	32644	35392
1674	0	37096	32648	35400
1675	0	37080	32648	35420
1676	0	37088	32648	35428
1677	0	37056	32654	35432
1678	0	37064	32637	35428
1679	0	37052	32648	35452
1680	0	37032	32668	35436
1681	0	37008	32672	35424
1682	0	37000	32660	35396
1683	0	37016	32661	35392
1684	0	36992	32644	35388
1685	0	37000	32652	35368
1686	0	37008	32628	35368
1687	0	37000	32640	35360
1688	0	36992	32624	35360
1689	0	37004	32624	35364
1690	0	37000	32628	35376
1691	0	37000	32637	35376
1692	0	37032	32632	35384
1693	0	37060	32624	35416
1694	0	37068	32628	35428
1695	0	37084	32628	35452
1696	0	37089	32632	35460
1697	0	37100	32632	35476
1698	0	37068	32640	35500
1699	0	37032	32640	35524
1700	0	37008	32644	35522
1701	0	36992	32656	35544
1702	0	37000	32648	35560
1703	0	37004	32644	35596
1704	0	36972	32664	35624
1705	0	36968	32676	35636
1706	0	36969	32672	35676
1707	0	36976	32672	35708
1708	0	36964	32660	35732
1709	0	36960	32660	35752
1710	0	36992	32664	35772
1711	0	36976	32656	35788
1712	0	36968	32668	35816
1713	0	36952	32656	35832
1714	0	36960	32644	35824
1715	0	36972	32640	35848
1716	0	36980	32636	35880
1717	0	36972	32640	35908
1718	0	36984	32612	35932
1719	0	36948	32616	35944
1720	0	36940	32608	35928
1721	0	36932	32600	35936
1722	0	36920	32604	35932
1723	0	36912	32600	35928
1724	0	36896	32585	35940
1725	0	36888	32580	35934
1726	0	36888	32564	35916
1727	0	36896	32568	35928
1728	0	36881	32568	35932
1729	0	36864	32565	35936
1730	0	36832	32572	35940
1731	0	36852	32570	35924
1732	0	36844	32568	35916
1733	0	36844	32552	35908
1734	0	36832	32556	35916
1735	0	36812	32560	35896
1736	0	36800	32568	35880
1737	0	36804	32572	35872
1738	0	36808	32573	35848
1739	0	36792	32556	35852
1740	0	36800	32548	35828
1741	0	36800	32560	35828
1742	0	36800	32548	35816
1743	0	36800	32540	35820
1744	0	36776	32552	35796
1745	0	36760	32540	35800
1746	0	36740	32564	35792
1747	0	36748	32560	35796
1748	0	36748	32556	35800
1749	0	36732	32560	35796
1750	0	36736	32569	35784
1751	0	36744	32568	35780
1752	0	36760	32564	35780
1753	0	36764	32572	35776
1754	0	36752	32572	35780
1755	0	36744	32576	35796
1756	0	36752	32601	35812
1757	0	36764	32596	35796
1758	0	36768	32596	35792
1759	0	36764	32592	35805
1760	0	36788	32604	35797
1761	0	36792	32588	35800
1762	0	36772	32600	35844
1763	0	36744	32596	35904
1764	0	36733	32608	35936
1765	0	36744	32604	35969
1766	0	36732	32596	36000
1767	0	36720	32608	36032
1768	0	36744	32612	36053
1769	0	36744	32608	36020
1770	0	36752	32608	36012
1771	0	36764	32600	35984
1772	0	36756	32596	36012
1773	0	36768	32608	36008
1774	0	36752	32580	36004
1775	0	36784	32600	36012
1776	0	36784	32584	35988
1777	0	36816	32588	35964
1778	0	36812	32592	35940
1779	0	36796	32584	35940
1780	0	36796	32568	35949
1781	0	36788	32568	35956
1782	0	36800	32564	35976
1783	0	36800	32564	35984
1784	0	36792	32552	35997
1785	0	36800	32564	36000
1786	0	36768	32556	36012
1787	0	36784	32544	36028
1788	0	36788	32552	36060
1789	0	36792	32552	36064
1790	0	36784	32532	36076
1791	0	36784	32540	36080
1792	0	36776	32544	36108
1793	0	36784	32552	36128
1794	0	36792	32552	36096
1795	0	36792	32544	36092
1796	0	36768	32528	36088
1797	0	36764	32556	36128
1798	0	36788	32544	36128
1799	0	36752	32524	36144
1800	0	36732	32524	36160
1801	0	36732	32512	36214
1802	0	36700	32504	36236
1803	0	36716	32524	36232
1804	0	36744	32540	36200
1805	0	36776	32520	36152
1806	0	36812	32532	36096
1807	0	36776	32512	36108
1808	0	36756	32496	36136
1809	0	36720	32492	36164
1810	0	36708	32504	36208
1811	0	36720	32528	36184
1812	0	36728	32541	36176
1813	0	36736	32560	36168
1814	0	36760	32544	36168
1815	0	36736	32548	36144
1816	0	36736	32548	36152
1817	0	36736	32552	36160
1818	0	36732	32568	36144
1819	0	36716	32544	36148
1820	0	36692	32548	36188
1821	0	36680	32576	36220
1822	0	36617	32572	36228
1823	0	36600	32600	36244
1824	0	36624	32608	36252
1825	0	36637	32608	36214
1826	0	36640	32608	36164
1827	0	36612	32604	36144
1828	0	36604	32609	36144
1829	0	36600	32624	36124
1830	0	36592	32600	36125
1831	0	36612	32612	36104
1832	0	36596	32604	36112
1833	0	36608	32620	36096
1834	0	36608	32613	36080
1835	0	36597	32632	36104
1836	0	36592	32640	36112
1837	0	36576	32632	36116
1838	0	36576	32636	36136
1839	0	36564	32644	36152
1840	0	36564	32640	36152
1841	0	36568	32653	36160
1842	0	36576	32636	36168
1843	0	36552	32628	36188
1844	0	36544	32656	36192
1845	0	36536	32668	36192
1846	0	36564	32673	36176
1847	0	36572	32680	36168
1848	0	36584	32668	36164
1849	0	36628	32661	36176
1850	0	36636	32680	36148
1851	0	36632	32656	36144
1852	0	36592	32664	36192
1853	0	36584	32664	36244
1854	0	36560	32656	36296
1855	0	36564	32668	36348
1856	0	36568	32684	36368
1857	0	36596	32672	36364
1858	0	36620	32669	36356
1859	0	36632	32660	36376
1860	0	36648	32656	36392
1861	0	36672	32632	36384
1862	0	36688	32632	36368
1863	0	36700	32636	36364
1864	0	36708	32616	36376
1865	0	36700	32617	36388
1866	0	36700	32608	36392
1867	0	36704	32616	36396
1868	0	36700	32628	36392
1869	0	36696	32636	36380
1870	0	36700	32620	36380
1871	0	36640	32608	36400
1872	0	36608	32621	36452
1873	0	36568	32644	36476
1874	0	36536	32633	36464
1875	0	36480	32668	36505
1876	0	36504	32700	36500
1877	0	36512	32696	36456
1878	0	36532	32684	36412
1879	0	36568	32694	36356
1880	0	36604	32684	36312
1881	0	36624	32664	36296
1882	0	36636	32656	36304
1883	0	36656	32640	36296
1884	0	36648	32644	36340
1885	0	36636	32652	36360
1886	0	36624	32664	36356
1887	0	36600	32684	36372
1888	0	36600	32672	36376
1889	0	36584	32696	36384
1890	0	36568	32696	36416
1891	0	36564	32704	36416
1892	0	36544	32708	36416
1893	0	36544	32728	36436
1894	0	36536	32728	36416
1895	0	36528	32732	36412
1896	0	36520	32732	36416
1897	0	36509	32744	36400
1898	0	36508	32756	36416
1899	0	36508	32752	36416
1900	0	36504	32732	36436
1901	0	36512	32724	36472
1902	0	36512	32724	36452
1903	0	36520	32721	36488
1904	0	36516	32712	36509
1905	0	36512	32708	36500
1906	0	36528	32705	36512
1907	0	36532	32712	36512
1908	0	36552	32708	36496
1909	0	36552	32708	36476
1910	0	36552	32716	36488
1911	0	36536	32736	36496
1912	0	36528	32736	36460
1913	0	36464	32737	36484
1914	0	36412	32740	36512
1915	0	36376	32728	36576
1916	0	36352	32740	36585
1917	0	36360	32736	36568
1918	0	36380	32709	36548
1919	0	36404	32716	36512
1920	0	36432	32716	36476
1921	0	36436	32692	36416
1922	0	36448	32680	36392
1923	0	36456	32665	36383
1924	0	36464	32684	36392
1925	0	36472	32668	36401
1926	0	36448	32668	36428
1927	0	36460	32672	36481
1928	0	36440	32684	36512
1929	0	36432	32676	36548
1930	0	36396	32684	36536
1931	0	36400	32685	36552
1932	0	36420	32684	36552
1933	0	36440	32680	36544
1934	0	36440	32684	36536
1935	0	36440	32672	36504
1936	0	36452	32692	36464
1937	0	36428	32692	36444
1938	0	36400	32704	36428
1939	0	36416	32728	36428
1940	0	36436	32728	36412
1941	0	36436	32720	36384
1942	0	36396	32724	36424
1943	0	36372	32744	36468
1944	0	36332	32741	36492
1945	0	36272	32760	36552
1946	0	36232	32756	36596
1947	0	36236	32768	36656
1948	0	36270	32772	36640
1949	0	36288	32768	36584
1950	0	36320	32752	36544
1951	0	36348	32732	36508
1952	0	36356	32720	36500
1953	0	36372	32728	36472
1954	0	36384	32704	36472
1955	0	36376	32700	36504
1956	0	36384	32693	36528
1957	0	36384	32701	36552
1958	0	36396	32700	36572
1959	0	36392	32736	36560
1960	0	36404	32744	36556
1961	0	36352	32752	36564
1962	0	36272	32724	36608
1963	0	36216	32748	36708
1964	0	36216	32716	36776
1965	0	36324	32717	36860
1966	0	36316	32724	36872
1967	0	36304	32696	36908
1968	0	36316	32640	36848
1969	0	36288	32636	36765
1970	0	36264	32664	36644
1971	0	36280	32688	36544
1972	0	36312	32724	36484
1973	0	36312	32740	36440
1974	0	36328	32720	36444
1975	0	36324	32701	36472
1976	0	36336	32680	36524
1977	0	36340	32676	36560
1978	0	36360	32724	36560
1979	0	36368	32724	36576
1980	0	36312	32736	36607
1981	0	36252	32784	36640
1982	0	36232	32828	36668
1983	0	36240	32848	36648
1984	0	36216	32853	36612
1985	0	36232	32844	36620
1986	0	36248	32844	36572
1987	0	36248	32820	36532
1988	0	36240	32800	36516
1989	0	36248	32776	36500
1990	0	36248	32764	36504
1991	0	36256	32752	36520
1992	0	36260	32724	36536
1993	0	36280	32688	36564
1994	0	36324	32684	36628
1995	0	36352	32692	36680
1996	0	36352	32688	36716
1997	0	36344	32680	36704
1998	0	36320	32688	36696
1999	0	36308	32692	36636
2000	0	36308	32716	36588
2001	0	36300	32732	36572
2002	0	36288	32740	36568
2003	0	36292	32737	36600
2004	0	36312	32712	36604
2005	0	36300	32720	36616
2006	0	36288	32708	36640
2007	0	36268	32716	36632
2008	0	36244	32714	36600
2009	0	36264	32728	36600
2010	0	36272	32744	36592
2011	0	36244	32741	36600
2012	0	36240	32752	36604
2013	0	36280	32768	36604
2014	0	36320	32792	36636
2015	0	36364	32784	36684
2016	0	36360	32792	36728
2017	0	36376	32788	36736
2018	0	36392	32776	36752
2019	0	36376	32760	36772
2020	0	36360	32748	36796
2021	0	36336	32744	36800
2022	0	36332	32724	36800
2023	0	36304	32708	36784
2024	0	36280	32704	36780
2025	0	36264	32724	36748
2026	0	36224	32728	36768
2027	0	36204	32744	36776
2028	0	36164	32736	36760
2029	0	36136	32733	36792
2030	0	36128	32756	36792
2031	0	36124	32760	36776
2032	0	36126	32780	36744
2033	0	36128	32776	36720
2034	0	36144	32766	36696
2035	0	36108	32788	36720
2036	0	36088	32792	36744
2037	0	36072	32812	36784
2038	0	36060	32808	36852
2039	0	36052	32796	36908
2040	0	36072	32816	36928
2041	0	36116	32832	36908
2042	0	36136	32820	36848
2043	0	36148	32800	36816
2044	0	36176	32800	36812
2045	0	36192	32788	36780
2046	0	36220	32768	36760
2047	0	36240	32760	36740
2048	0	36232	32764	36732
2049	0	36224	32756	36732
2050	0	36208	32764	36772
2051	0	36184	32780	36792
2052	0	36144	32784	36808
2053	0	36116	32781	36860
2054	0	36080	32800	36872
2055	0	36064	32813	36872
2056	0	36076	32812	36868
2057	0	36084	32796	36833
2058	0	36120	32792	36829
2059	0	36148	32782	36784
2060	0	36160	32756	36780
2061	0	36180	32760	36784
2062	0	36184	32749	36776
2063	0	36208	32724	36772
2064	0	36240	32740	36781
2065	0	36252	32752	36752
2066	0	36240	32748	36768
2067	0	36220	32765	36781
2068	0	36152	32732	36832
2069	0	36076	32736	36916
2070	0	36068	32764	36936
2071	0	36072	32752	36928
2072	0	36080	32764	36928
2073	0	36104	32756	36924
2074	0	36120	32748	36872
2075	0	36160	32748	36848
2076	0	36180	32740	36784
2077	0	36188	32728	36760
2078	0	36192	32724	36744
2079	0	36188	32702	36740
2080	0	36192	32708	36768
2081	0	36180	32704	36784
2082	0	36168	32704	36792
2083	0	36152	32706	36776
2084	0	36125	32721	36780
2085	0	36116	32716	36764
2086	0	36104	32724	36764
2087	0	36084	32736	36765
2088	0	36084	32736	36748
2089	0	36084	32737	36732
2090	0	36088	32752	36700
2091	0	36088	32756	36712
2092	0	36080	32748	36716
2093	0	36068	32736	36716
2094	0	36064	32732	36728
2095	0	36076	32724	36720
2096	0	36060	32704	36732
2097	0	36048	32692	36740
2098	0	36048	32682	36756
2099	0	36024	32672	36760
2100	0	36020	32648	36784
2101	0	36000	32652	36808
2102	0	35984	32628	36836
2103	0	36000	32624	36856
2104	0	36012	32604	36872
2105	0	36080	32612	36884
2106	0	36136	32608	36916
2107	0	36200	32632	36956
2108	0	36192	32640	36968
2109	0	36192	32664	36940
2110	0	36168	32664	36948
2111	0	36144	32668	36952
2112	0	36136	32642	36932
2113	0	36128	32624	36913
2114	0	36124	32608	36920
2115	0	36116	32616	36944
2116	0	36104	32644	36920
2117	0	36100	32652	36908
2118	0	36096	32664	36904
2119	0	36088	32668	36892
2120	0	36088	32692	36872
2121	0	36096	32688	36864
2122	0	36080	32692	36856
2123	0	36072	32704	36856
2124	0	36056	32712	36836
2125	0	36024	32728	36832
2126	0	36008	32748	36836
2127	0	35988	32748	36828
2128	0	35976	32756	36836
2129	0	35952	32756	36836
2130	0	35940	32764	36856
2131	0	35944	32756	36872
2132	0	35932	32744	36864
2133	0	35956	32752	36892
2134	0	35968	32736	36904
2135	0	35964	32728	36916
2136	0	35944	32733	36904
2137	0	35940	32696	36888
2138	0	35944	32688	36880
2139	0	35980	32704	36892
2140	0	36008	32720	36908
2141	0	35980	32716	36896
2142	0	35992	32712	36876
2143	0	36008	32728	36872
2144	0	35992	32740	36856
2145	0	35992	32720	36860
2146	0	35996	32716	36856
2147	0	35996	32708	36863
2148	0	36016	32717	36892
2149	0	36032	32716	36892
2150	0	36052	32704	36924
2151	0	36048	32720	36948
2152	0	36040	32744	36932
2153	0	36016	32736	36920
2154	0	36020	32728	36912
2155	0	35996	32732	36896
2156	0	35996	32712	36888
2157	0	36000	32712	36892
2158	0	36016	32704	36868
2159	0	36052	32696	36880
2160	0	36044	32704	36876
2161	0	36032	32712	36856
2162	0	36024	32712	36848
2163	0	36024	32716	36840
2164	0	36036	32712	36852
2165	0	36024	32732	36844
2166	0	36028	32724	36816
2167	0	36012	32728	36800
2168	0	36024	32724	36820
2169	0	36036	32718	36832
2170	0	36020	32712	36836
2171	0	36020	32704	36844
2172	0	36024	32728	36828
2173	0	36016	32732	36840
2174	0	36012	32736	36848
2175	0	36000	32736	36836
2176	0	35985	32732	36816
2177	0	35992	32736	36816
2178	0	35984	32752	36824
2179	0	36000	32748	36831
2180	0	36000	32760	36824
2181	0	36000	32744	36832
2182	0	35992	32769	36844
2183	0	35968	32772	36816
2184	0	35984	32776	36792
2185	0	35980	32784	36804
2186	0	35988	32788	36800
2187	0	35992	32806	36792
2188	0	35992	32828	36796
2189	0	35988	32816	36828
2190	0	35992	32830	36792
2191	0	35992	32816	36765
2192	0	35988	32824	36740
2193	0	35992	32828	36748
2194	0	35984	32832	36764
2195	0	35988	32836	36760
2196	0	35980	32820	36756
2197	0	35968	32805	36776
2198	0	35960	32804	36752
2199	0	35952	32805	36776
2200	0	35944	32792	36772
2201	0	35936	32782	36788
2202	0	35936	32757	36800
2203	0	35928	32764	36792
2204	0	35920	32760	36780
2205	0	35932	32757	36796
2206	0	35936	32760	36804
2207	0	35932	32758	36817
2208	0	35944	32768	36792
2209	0	35936	32736	36829
2210	0	35944	32725	36852
2211	0	35948	32736	36880
2212	0	35944	32737	36872
2213	0	35940	32740	36876
2214	0	35952	32732	36877
2215	0	35960	32732	36868
2216	0	35952	32764	36856
2217	0	35944	32776	36848
2218	0	35984	32772	36852
2219	0	35968	32772	36812
2220	0	35976	32793	36796
2221	0	35960	32812	36788
2222	0	35956	32824	36800
2223	0	35948	32824	36824
2224	0	35921	32856	36844
2225	0	35900	32836	36880
2226	0	35888	32852	36912
2227	0	35888	32864	36944
2228	0	35916	32880	36928
2229	0	35940	32888	36900
2230	0	35984	32884	36856
2231	0	35984	32880	36828
2232	0	36020	32876	36812
2233	0	36012	32852	36781
2234	0	35992	32848	36780
2235	0	35992	32856	36768
2236	0	35960	32852	36760
2237	0	35944	32840	36809
2238	0	35920	32868	36844
2239	0	35908	32888	36884
2240	0	35924	32908	36868
2241	0	35932	32896	36869
2242	0	35968	32885	36844
2243	0	35976	32912	36808
2244	0	35968	32904	36796
2245	0	35968	32928	36792
2246	0	35964	32928	36780
2247	0	35984	32916	36772
2248	0	35972	32912	36796
2249	0	35956	32924	36800
2250	0	35976	32920	36829
2251	0	35992	32933	36832
2252	0	36000	32924	36800
2253	0	36000	32928	36776
2254	0	35996	32916	36757
2255	0	36016	32928	36744
2256	0	35984	32944	36732
2257	0	35976	32940	36708
2258	0	35976	32960	36712
2259	0	35984	32972	36744
2260	0	36000	32976	36740
2261	0	36000	32980	36720
2262	0	35996	32984	36720
2263	0	36000	32996	36740
2264	0	35992	32988	36756
2265	0	35968	32996	36736
2266	0	35964	33004	36716
2267	0	35956	33016	36760
2268	0	35952	33040	36740
2269	0	35968	33032	36748
2270	0	35948	33012	36708
2271	0	35936	33012	36680
2272	0	35920	33000	36664
2273	0	35920	32992	36656
2274	0	35920	32988	36669
2275	0	35940	32976	36700
2276	0	35960	32980	36716
2277	0	35988	33006	36680
2278	0	36012	33004	36688
2279	0	36028	33048	36676
2280	0	36044	33040	36688
2281	0	36048	33056	36680
2282	0	36076	33084	36668
2283	0	36080	33104	36656
2284	0	36080	33112	36616
2285	0	36056	33120	36588
2286	0	36080	33149	36576
2287	0	36068	33156	36504
2288	0	36080	33165	36448
2289	0	36088	33164	36416
2290	0	36084	33180	36372
2291	0	36104	33192	36329
2292	0	36088	33204	36284
2293	0	36092	33220	36248
2294	0	36104	33229	36213
2295	0	36120	33240	36200
2296	0	36105	33264	36216
2297	0	36136	33260	36220
2298	0	36152	33272	36236
2299	0	36168	33300	36264
2300	0	36188	33296	36284
2301	0	36296	33197	36280
2302	0	36408	33128	36324
2303	0	36432	33104	36320
2304	0	36440	33054	36356
2305	0	36460	33044	36358
2306	0	36456	33120	36372
2307	0	36408	33192	36404
2308	0	36372	33224	36388
2309	0	36344	33184	36381
2310	0	36392	33152	36332
2311	0	36396	33192	36277
2312	0	36376	33184	36217
2313	0	36368	33192	36164
2314	0	36372	33124	36136
2315	0	36400	33148	36064
2316	0	36440	33192	36064
2317	0	36400	33184	36092
2318	0	36372	33172	36112
2319	0	36416	33212	36152
2320	0	36432	33264	36204
2321	0	36456	33280	36273
2322	0	36472	33280	36364
2323	0	36509	33288	36444
2324	0	36528	33304	36500
2325	0	36576	33328	36548
2326	0	36604	33344	36600
2327	0	36604	33320	36620
2328	0	36600	33312	36652
2329	0	36600	33312	36692
2330	0	36584	33324	36700
2331	0	36600	33333	36684
2332	0	36560	33336	36640
2333	0	36560	33372	36600
2334	0	36560	33400	36544
2335	0	36544	33444	36568
2336	0	36564	33460	36733
2337	0	36600	33481	36872
2338	0	36632	33520	36928
2339	0	36656	33524	36980
2340	0	36664	33524	36984
2341	0	36688	33516	36964
2342	0	36732	33457	36960
2343	0	36780	33420	36912
2344	0	36844	33409	36852
2345	0	36904	33396	36784
2346	0	36928	33396	36728
2347	0	36952	33400	36692
2348	0	36988	33412	36636
2349	0	37008	33440	36528
2350	0	36988	33440	36460
2351	0	37000	33448	36416
2352	0	36992	33420	36360
2353	0	36944	33408	36332
2354	0	36868	33464	36328
2355	0	36888	33468	36328
2356	0	36960	33456	36292
2357	0	36984	33480	36284
2358	0	37048	33448	36284
2359	0	37048	33476	36325
2360	0	37168	33472	36383
2361	0	37288	33472	36436
2362	0	37284	33468	36492
2363	0	37272	33492	36520
2364	0	37332	33477	36564
2365	0	37320	33508	36624
2366	0	37312	33544	36672
2367	0	37260	33596	36752
2368	0	37296	33552	36824
2369	0	37392	33512	36880
2370	0	37468	33548	36964
2371	0	37457	33600	37040
2372	0	37428	33580	37084
2373	0	37396	33588	37104
2374	0	37388	33604	37100
2375	0	37384	33548	37072
2376	0	37388	33576	37056
2377	0	37364	33608	37068
2378	0	37328	33560	37052
2379	0	37352	33524	37004
2380	0	37416	33543	36980
2381	0	37416	33556	36900
2382	0	37408	33584	36820
2383	0	37376	33592	36756
2384	0	37328	33552	36654
2385	0	37316	33544	36556
2386	0	37332	33528	36440
2387	0	37296	33544	36352
2388	0	37320	33508	36256
2389	0	37344	33509	36176
2390	0	37296	33533	36088
2391	0	37288	33512	36000
2392	0	37320	33480	35904
2393	0	37340	33444	35836
2394	0	37376	33447	35788
2395	0	37376	33460	35744
2396	0	37360	33437	35716
2397	0	37356	33416	35676
2398	0	37340	33428	35648
2399	0	37312	33428	35615
2400	0	37328	33408	35588
2401	0	37304	33408	35576
2402	0	37248	33392	35544
2403	0	37212	33384	35520
2404	0	37148	33372	35500
2405	0	37128	33360	35505
2406	0	37096	33324	35472
2407	0	37080	33285	35456
2408	0	37020	33304	35468
2409	0	36948	33276	35452
2410	0	36896	33288	35444
2411	0	36852	33264	35433
2412	0	36856	33296	35412
2413	0	36824	33336	35368
2414	0	36784	33320	35329
2415	0	36760	33316	35272
2416	0	36716	33288	35176
2417	0	36668	33285	35084
2418	0	36616	33244	35000
2419	0	36529	33248	34908
2420	0	36536	33210	34860
2421	0	36560	33172	34824
2422	0	36556	33160	34808
2423	0	36568	33168	34792
2424	0	36616	33148	34840
2425	0	36696	33136	34868
2426	0	36768	33132	34936
2427	0	36840	33136	34996
2428	0	36892	33132	35032
2429	0	36940	33128	35040
2430	0	36960	33116	35064
2431	0	36976	33104	35048
2432	0	36976	33088	35032
2433	0	36972	33080	35016
2434	0	36952	33088	34988
2435	0	36928	33076	34996
2436	0	36900	33072	34984
2437	0	36888	33064	34988
2438	0	36876	33060	34984
2439	0	36872	33068	35000
2440	0	36864	33060	35024
2441	0	36852	33068	35028
2442	0	36880	33048	35036
2443	0	36884	33048	35064
2444	0	36900	33052	35084
2445	0	36920	33040	35136
2446	0	36944	33040	35176
2447	0	36960	33036	35196
2448	0	36988	33020	35232
2449	0	37012	33012	35256
2450	0	37040	33016	35288
2451	0	37056	33020	35308
2452	0	37084	33024	35316
2453	0	37088	33028	35336
2454	0	37112	33040	35352
2455	0	37112	33044	35360
2456	0	37144	33040	35368
2457	0	37156	33033	35356
2458	0	37164	33040	35360
2459	0	37176	33036	35352
2460	0	37184	33048	35352
2461	0	37208	33056	35336
2462	0	37216	33050	35320
2463	0	37244	33049	35324
2464	0	37256	33044	35336
2465	0	37260	33052	35344
2466	0	37284	33064	35352
2467	0	37292	33072	35376
2468	0	37312	33076	35380
2469	0	37320	33076	35404
2470	0	37324	33085	35400
2471	0	37336	33060	35424
2472	0	37340	33052	35472
2473	0	37352	33037	35484
2474	0	37360	33032	35516
2475	0	37384	33024	35528
2476	0	37384	33028	35580
2477	0	37416	33040	35580
2478	0	37412	33053	35608
2479	0	37420	33044	35596
2480	0	37432	33032	35624
2481	0	37444	33024	35620
2482	0	37448	33036	35632
2483	0	37448	33032	35628
2484	0	37444	33012	35604
2485	0	37436	33010	35565
2486	0	37432	33000	35528
2487	0	37412	32992	35484
2488	0	37380	32985	35428
2489	0	37352	32980	35392
2490	0	37340	32968	35376
2491	0	37308	32956	35326
2492	0	37292	32948	35284
2493	0	37244	32952	35256
2494	0	37232	32928	35240
2495	0	37216	32920	35224
2496	0	37192	32896	35220
2497	0	37176	32872	35212
2498	0	37164	32868	35204
2499	0	37148	32860	35208
2500	0	37132	32844	35184
2501	0	37112	32844	35204
2502	0	37096	32828	35192
2503	0	37092	32820	35213
2504	0	37081	32800	35224
2505	0	37080	32801	35252
2506	0	37072	32792	35264
2507	0	37072	32784	35316
2508	0	37040	32780	35356
2509	0	37036	32784	35364
2510	0	37040	32768	35392
2511	0	37028	32756	35432
2512	0	37016	32748	35468
2513	0	37000	32749	35508
2514	0	36992	32749	35520
2515	0	36976	32744	35556
2516	0	36988	32729	35576
2517	0	36976	32740	35584
2518	0	36976	32740	35600
2519	0	36976	32736	35632
2520	0	36972	32736	35664
2521	0	36984	32737	35640
2522	0	36984	32736	35648
2523	0	36984	32720	35656
2524	0	36996	32720	35652
2525	0	36992	32724	35632
2526	0	37008	32712	35616
2527	0	37016	32716	35620
2528	0	37020	32704	35648
2529	0	37024	32708	35636
2530	0	37032	32716	35620
2531	0	37040	32728	35608
2532	0	37048	32728	35592
2533	0	37056	32724	35564
2534	0	37056	32720	35520
2535	0	37056	32717	35504
2536	0	37040	32728	35476
2537	0	37052	32744	35434
2538	0	37056	32744	35400
2539	0	37064	32752	35360
2540	0	37072	32744	35332
2541	0	37060	32744	35292
2542	0	37064	32752	35268
2543	0	37060	32752	35225
2544	0	37048	32764	35216
2545	0	37040	32768	35196
2546	0	37044	32756	35188
2547	0	37052	32752	35180
2548	0	37056	32760	35160
2549	0	37032	32764	35164
2550	0	37040	32752	35164
2551	0	37032	32752	35145
2552	0	37032	32756	35172
2553	0	37052	32760	35192
2554	0	37032	32776	35200
2555	0	37040	32788	35229
2556	0	37056	32792	35260
2557	0	37064	32800	35276
2558	0	37076	32805	35304
2559	0	37084	32797	35352
2560	0	37112	32776	35397
2561	0	37124	32768	35422
2562	0	37164	32765	35460
2563	0	37152	32784	35484
2564	0	37160	32796	35520
2565	0	37176	32796	35528
2566	0	37176	32808	35536
2567	0	37184	32812	35552
2568	0	37216	32824	35568
2569	0	37216	32808	35556
2570	0	37228	32801	35576
2571	0	37240	32820	35576
2572	0	37224	32824	35581
2573	0	37240	32824	35572
2574	0	37232	32836	35540
2575	0	37224	32832	35532
2576	0	37232	32828	35525
2577	0	37244	32824	35508
2578	0	37240	32828	35488
2579	0	37256	32828	35476
2580	0	37249	32836	35452
2581	0	37248	32844	35452
2582	0	37244	32862	35416
2583	0	37240	32845	35420
2584	0	37228	32852	35412
2585	0	37224	32844	35390
2586	0	37224	32836	35408
2587	0	37224	32856	35396
2588	0	37236	32852	35416
2589	0	37237	32852	35416
2590	0	37244	32856	35420
2591	0	37240	32872	35448
2592	0	37244	32879	35468
2593	0	37232	32888	35480
2594	0	37256	32860	35485
2595	0	37264	32872	35496
2596	0	37272	32876	35520
2597	0	37284	32892	35540
2598	0	37296	32872	35568
2599	0	37300	32880	35584
2600	0	37304	32876	35600
2601	0	37312	32872	35612
2602	0	37304	32868	35600
2603	0	37296	32860	35613
2604	0	37300	32864	35640
2605	0	37312	32856	35633
2606	0	37296	32852	35636
2607	0	37288	32844	35640
2608	0	37276	32840	35640
2609	0	37272	32836	35624
2610	0	37260	32828	35624
2611	0	37244	32828	35608
2612	0	37232	32828	35600
2613	0	37205	32836	35616
2614	0	37196	32824	35596
2615	0	37176	32816	35544
2616	0	37160	32804	35536
2617	0	37144	32820	35512
2618	0	37112	32825	35492
2619	0	37104	32808	35496
2620	0	37096	32812	35484
2621	0	37088	32808	35476
2622	0	37084	32804	35440
2623	0	37076	32808	35432
2624	0	37056	32800	35420
2625	0	37056	32792	35425
2626	0	37040	32788	35400
2627	0	37032	32788	35404
2628	0	37016	32800	35404
2629	0	37016	32796	35404
2630	0	37016	32788	35393
2631	0	37000	32796	35384
2632	0	37012	32796	35396
2633	0	37008	32798	35404
2634	0	37020	32792	35392
2635	0	37024	32800	35381
2636	0	37032	32792	35384
2637	0	37032	32800	35388
2638	0	37036	32798	35396
2639	0	37037	32812	35384
2640	0	37040	32816	35368
2641	0	37061	32804	35368
2642	0	37080	32824	35376
2643	0	37080	32840	35384
2644	0	37088	32828	35388
2645	0	37100	32832	35392
2646	0	37112	32832	35376
2647	0	37116	32840	35360
2648	0	37128	32840	35336
2649	0	37128	32832	35320
2650	0	37128	32832	35312
2651	0	37129	32836	35304
2652	0	37132	32844	35280
2653	0	37136	32848	35264
2654	0	37136	32844	35248
2655	0	37148	32840	35265
2656	0	37160	32824	35280
2657	0	37184	32824	35288
2658	0	37184	32852	35280
2659	0	37192	32860	35296
2660	0	37184	32868	35288
2661	0	37212	32864	35316
2662	0	37220	32880	35324
2663	0	37232	32884	35320
2664	0	37224	32884	35344
2665	0	37232	32884	35364
2666	0	37224	32893	35360
2667	0	37245	32884	35360
2668	0	37256	32908	35364
2669	0	37244	32900	35374
2670	0	37248	32920	35380
2671	0	37260	32908	35364
2672	0	37272	32924	35341
2673	0	37272	32916	35340
2674	0	37268	32920	35352
2675	0	37280	32920	35368
2676	0	37280	32908	35388
2677	0	37280	32908	35392
2678	0	37288	32913	35416
2679	0	37288	32908	35421
2680	0	37292	32904	35440
2681	0	37292	32919	35452
2682	0	37304	32912	35468
2683	0	37304	32904	35484
2684	0	37304	32920	35512
2685	0	37320	32920	35544
2686	0	37320	32924	35576
2687	0	37340	32932	35601
2688	0	37340	32932	35616
2689	0	37352	32932	35640
2690	0	37344	32942	35664
2691	0	37368	32936	35676
2692	0	37368	32936	35700
2693	0	37372	32948	35713
2694	0	37368	32948	35720
2695	0	37364	32948	35736
2696	0	37364	32940	35724
2697	0	37360	32936	35736
2698	0	37352	32944	35724
2699	0	37348	32940	35736
2700	0	37352	32924	35708
2701	0	37336	32924	35700
2702	0	37308	32908	35668
2703	0	37304	32916	35668
2704	0	37296	32909	35652
2705	0	37288	32908	35640
2706	0	37264	32900	35613
2707	0	37248	32876	35580
2708	0	37252	32872	35552
2709	0	37228	32872	35518
2710	0	37212	32856	35496
2711	0	37204	32848	35484
2712	0	37180	32840	35472
2713	0	37160	32844	35448
2714	0	37144	32824	35440
2715	0	37136	32808	35448
2716	0	37128	32800	35432
2717	0	37116	32796	35420
2718	0	37108	32796	35424
2719	0	37088	32800	35412
2720	0	37080	32800	35420
2721	0	37080	32784	35440
2722	0	37060	32772	35464
2723	0	37060	32768	35468
2724	0	37048	32780	35480
2725	0	37052	32765	35520
2726	0	37044	32744	35540
2727	0	37048	32748	35533
2728	0	37040	32748	35536
2729	0	37032	32748	35564
2730	0	37040	32736	35572
2731	0	37052	32752	35588
2732	0	37056	32756	35580
2733	0	37056	32764	35556
2734	0	37064	32753	35572
2735	0	37072	32749	35592
2736	0	37080	32748	35592
2737	0	37068	32740	35572
2738	0	37072	32748	35568
2739	0	37096	32752	35568
2740	0	37096	32760	35540
2741	0	37096	32772	35512
2742	0	37112	32736	35496
2743	0	37108	32736	35480
2744	0	37104	32744	35472
2745	0	37104	32740	35448
2746	0	37104	32740	35444
2747	0	37108	32737	35432
2748	0	37112	32740	35420
2749	0	37096	32744	35408
2750	0	37084	32756	35412
2751	0	37076	32748	35400
2752	0	35512	32308	35280
2753	0	31112	32292	34920
2754	0	27456	33144	34780
2755	0	25876	33552	34860
2756	0	26244	33496	35064
2757	0	27976	33280	35424
2758	0	30352	33112	35768
2759	0	32788	33032	36092
2760	0	34964	33004	36332
2761	0	36700	33007	36480
2762	0	37952	32992	36572
2763	0	38712	33008	36564
2764	0	39080	33040	36472
2765	0	39208	33096	36272
2766	0	39168	33128	36028
2767	0	39032	33164	35772
2768	0	38932	33164	35572
2769	0	38812	33152	35412
2770	0	38748	33132	35288
2771	0	38644	33120	35172
2772	0	38516	33096	35104
2773	0	38336	33105	35040
2774	0	38128	33112	35020
2775	0	37912	33148	35000
2776	0	37728	33188	35004
2777	0	37548	33193	35008
2778	0	37388	33246	35032
2779	0	37256	33264	35072
2780	0	37172	33312	35104
2781	0	37144	33309	35188
2782	0	37124	33336	35284
2783	0	37120	33356	35340
2784	0	37112	33400	35404
2785	0	37152	33440	35560
2786	0	37372	33460	36174
2787	0	37584	33516	37020
2788	0	37584	33596	37468
2789	0	37432	33668	37472
2790	0	37216	33684	37208
2791	0	37012	33644	36800
2792	0	36884	33564	36468
2793	0	36880	33532	36240
2794	0	36936	33544	36116
2795	0	37036	33564	36084
2796	0	38388	33380	36408
2797	0	43016	32860	37656
2798	0	46152	33040	37512
2799	0	45968	33920	36308
2800	0	44312	34152	35272
2801	0	42464	34036	35028
2802	0	40756	33860	35225
2803	0	39488	33765	35496
2804	0	38592	33724	35696
2805	0	37920	33680	35860
2806	0	37432	33632	35936
2807	0	37072	33560	35896
2808	0	36836	33476	35860
2809	0	36716	33444	35820
2810	0	36792	33440	35812
2811	0	36792	33468	35768
2812	0	36776	33464	35764
2813	0	36720	33532	35784
2814	0	36668	33600	35792
2815	0	36620	33672	35788
2816	0	36716	33581	35832
2817	0	36804	33624	35840
2818	0	36828	33612	35800
2819	0	36852	33596	35772
2820	0	36904	33589	35716
2821	0	36864	33609	35676
2822	0	36849	33564	35652
2823	0	36912	33508	35656
2824	0	36924	33484	35684
2825	0	36848	33508	35724
2826	0	36808	33452	35712
2827	0	36760	33448	35716
2828	0	36696	33404	35728
2829	0	36728	33328	35756
2830	0	36600	33368	35796
2831	0	36488	33408	35816
2832	0	36520	33368	35860
2833	0	36640	33340	35892
2834	0	36680	33316	35929
2835	0	36776	33244	35976
2836	0	36760	33288	36012
2837	0	36768	33332	36040
2838	0	36824	33356	36052
2839	0	36824	33356	36044
2840	0	36888	33356	36016
2841	0	36984	33276	36020
2842	0	36904	33340	36032
2843	0	36884	33340	36080
2844	0	36912	33320	36153
2845	0	36848	33372	36144
2846	0	36904	33308	36144
2847	0	36968	33264	36184
2848	0	36884	33332	36192
2849	0	36832	33368	36216
2850	0	36824	33356	36236
2851	0	36832	33344	36200
2852	0	36808	33368	36196
2853	0	36784	33372	36212
2854	0	36728	33344	36232
2855	0	36688	33328	36280
2856	0	36628	33324	36316
2857	0	36580	33316	36372
2858	0	36520	33288	36416
2859	0	36440	33268	36460
2860	0	36372	33260	36493
2861	0	36312	33264	36484
2862	0	36312	33242	36476
2863	0	36288	33228	36480
2864	0	36281	33216	36480
2865	0	36252	33212	36448
2866	0	36256	33214	36452
2867	0	36220	33220	36428
2868	0	36216	33205	36456
2869	0	36184	33208	36484
2870	0	36176	33209	36488
2871	0	36160	33196	36512
2872	0	36192	33192	36492
2873	0	36144	33156	36488
2874	0	36080	33128	36508
2875	0	36064	33128	36484
2876	0	36072	33128	36472
2877	0	36064	33124	36456
2878	0	36060	33132	36432
2879	0	36072	33136	36396
2880	0	36052	33116	36392
2881	0	36064	33100	36344
2882	0	36104	33080	36328
2883	0	36094	33080	36300
2884	0	36064	33068	36280
2885	0	36060	33080	36280
2886	0	36076	33064	36272
2887	0	36080	33056	36280
2888	0	36104	33056	36296
2889	0	36120	33064	36304
2890	0	36148	33052	36320
2891	0	36120	33052	36344
2892	0	36136	33056	36328
2893	0	36156	33040	36324
2894	0	36152	33048	36336
2895	0	36168	33080	36344
2896	0	36184	33119	36364
2897	0	36188	33056	36412
2898	0	36148	32992	36396
2899	0	36128	32984	36396
2900	0	36084	33001	36432
2901	0	36080	33012	36476
2902	0	36104	33032	36480
2903	0	36080	33040	36492
2904	0	36080	33020	36480
2905	0	36085	33016	36456
2906	0	36072	33004	36492
2907	0	36032	33005	36524
2908	0	36000	33024	36568
2909	0	36020	33042	36584
2910	0	36020	33024	36592
2911	0	35992	33024	36632
2912	0	35968	33016	36668
2913	0	35972	33016	36680
2914	0	36000	33036	36677
2915	0	36000	33032	36688
2916	0	36048	33044	36688
2917	0	36068	33040	36696
2918	0	36088	33044	36712
2919	0	36112	33057	36732
2920	0	36152	33028	36736
2921	0	36160	33032	36772
2922	0	36132	33052	36784
2923	0	36160	33024	36800
2924	0	36168	33004	36836
2925	0	36100	33012	36888
2926	0	36064	33076	36936
2927	0	36088	33108	36932
2928	0	36128	33084	36940
2929	0	36180	33080	36932
2930	0	36184	33044	36928
2931	0	36192	32992	36952
2932	0	36136	32992	37000
2933	0	36072	33048	37048
2934	0	36064	33096	37072
2935	0	36080	33094	37108
2936	0	36108	33080	37100
2937	0	36104	33060	37104
2938	0	36064	33052	37152
2939	0	36048	33084	37156
2940	0	36056	33076	37176
2941	0	36044	33036	37156
2942	0	35992	33036	37140
2943	0	35924	33076	37148
2944	0	35904	33072	37140
2945	0	35868	33084	37108
2946	0	35885	33084	37040
2947	0	35856	33072	36988
2948	0	35816	33056	36988
2949	0	35792	33044	36968
2950	0	35744	33032	36968
2951	0	35704	33044	36996
2952	0	35664	33032	37004
2953	0	35608	33020	37052
2954	0	35568	33000	37072
2955	0	35528	33005	37060
2956	0	35540	33008	37072
2957	0	35512	33012	37080
2958	0	35480	32992	37136
2959	0	35448	32996	37140
2960	0	35436	33000	37172
2961	0	35440	32984	37204
2962	0	35421	33012	37216
2963	0	35424	32998	37240
2964	0	35436	33028	37244
2965	0	35444	33020	37264
2966	0	35448	33016	37244
2967	0	35424	33004	37276
2968	0	35404	33012	37288
2969	0	35384	33004	37324
2970	0	35404	33040	37308
2971	0	35412	33044	37272
2972	0	35412	33024	37308
2973	0	35404	33032	37300
2974	0	35408	33028	37300
2975	0	35388	33024	37304
2976	0	35376	33044	37292
2977	0	35360	33044	37292
2978	0	35372	33044	37288
2979	0	35368	33053	37273
2980	0	35368	33048	37244
2981	0	35384	33032	37248
2982	0	35384	33028	37244
2983	0	35360	33028	37260
2984	0	35344	33020	37292
2985	0	35324	33032	37268
2986	0	35312	33036	37276
2987	0	35312	33036	37300
2988	0	35320	33044	37304
2989	0	35320	33048	37280
2990	0	35324	33056	37280
2991	0	35320	33056	37308
2992	0	35320	33056	37328
2993	0	35304	33044	37336
2994	0	35308	33048	37356
2995	0	35332	33040	37372
2996	0	35332	33052	37392
2997	0	35316	33048	37424
2998	0	35332	33032	37436
2999	0	35316	33036	37468
3000	0	35320	33036	37488
3001	0	35304	33044	37500
3002	0	35304	33052	37496
3003	0	35304	33036	37500
3004	0	35312	33020	37497
3005	0	35308	33016	37484
3006	0	35304	33016	37496
3007	0	35296	33000	37512
3008	0	35276	33012	37528
3009	0	35248	33016	37568
3010	0	35224	33052	37584
3011	0	35232	33060	37596
3012	0	35236	33026	37604
3013	0	35240	33005	37608
3014	0	35208	32992	37656
3015	0	35176	33014	37660
3016	0	35184	33028	37660
3017	0	35184	33028	37704
3018	0	35192	33016	37700
3019	0	35184	33016	37692
3020	0	35164	33048	37700
3021	0	35152	33040	37688
3022	0	35136	33008	37700
3023	0	35124	33004	37696
3024	0	35101	33012	37712
3025	0	35092	32972	37736
3026	0	35048	32976	37728
3027	0	35040	33028	37736
3028	0	35040	33044	37724
3029	0	35048	33016	37720
3030	0	35048	32972	37752
3031	0	35010	32948	37756
3032	0	34984	32964	37740
3033	0	34968	32996	37744
3034	0	34980	33008	37772
3035	0	35008	32972	37732
3036	0	34968	32968	37712
3037	0	34928	33000	37768
3038	0	34924	33020	37788
3039	0	34928	33020	37729
3040	0	34932	33004	37704
3041	0	34928	32992	37712
3042	0	34920	33001	37696
3043	0	34912	32996	37664
3044	0	34896	33016	37640
3045	0	34872	33024	37608
3046	0	34888	32992	37608
3047	0	34860	32960	37600
3048	0	34824	32988	37557
3049	0	34788	33000	37532
3050	0	34740	33005	37576
3051	0	34696	33004	37560
3052	0	34672	32961	37532
3053	0	34620	32956	37556
3054	0	34584	32936	37560
3055	0	34536	32944	37568
3056	0	34504	32948	37596
3057	0	34448	32956	37608
3058	0	34440	32948	37608
3059	0	34424	32940	37620
3060	0	34428	32972	37596
3061	0	34424	32960	37584
3062	0	34408	32912	37616
3063	0	34408	32928	37628
3064	0	34408	32905	37624
3065	0	34400	32892	37632
3066	0	34396	32901	37652
3067	0	34396	32893	37656
3068	0	34404	32880	37676
3069	0	34420	32877	37656
3070	0	34440	32880	37648
3071	0	34444	32892	37660
3072	0	34440	32893	37648
3073	0	34458	32880	37638
3074	0	34452	32872	37616
3075	0	34452	32860	37624
3076	0	34448	32856	37612
3077	0	34460	32852	37612
3078	0	34440	32872	37609
3079	0	34440	32880	37608
3080	0	34440	32876	37616
3081	0	34448	32876	37600
3082	0	34440	32888	37620
3083	0	34440	32884	37636
3084	0	34444	32880	37644
3085	0	34460	32876	37644
3086	0	34472	32888	37672
3087	0	34464	32900	37705
3088	0	34460	32908	37744
3089	0	34480	32900	37784
3090	0	34480	32894	37808
3091	0	34488	32909	37832
3092	0	34496	32908	37856
3093	0	34504	32908	37896
3094	0	34508	32904	37912
3095	0	34516	32916	37944
3096	0	34520	32924	37968
3097	0	34520	32912	37976
3098	0	34504	32912	37972
3099	0	34500	32894	37980
3100	0	34500	32880	37982
3101	0	34496	32876	37996
3102	0	34480	32872	37984
3103	0	34468	32868	37992
3104	0	34456	32872	37992
3105	0	34428	32892	38008
3106	0	34420	32884	38008
3107	0	34404	32872	37984
3108	0	34384	32868	37976
3109	0	34376	32868	37956
3110	0	34368	32844	37968
3111	0	34356	32840	37984
3112	0	34348	32828	37944
3113	0	34328	32824	37940
3114	0	34332	32812	37957
3115	0	34320	32820	38020
3116	0	34328	32832	38052
3117	0	34328	32816	38044
3118	0	34316	32820	38032
3119	0	34305	32808	38032
3120	0	34288	32806	38025
3121	0	34280	32812	38040
3122	0	34272	32804	38020
3123	0	34252	32808	38020
3124	0	34256	32812	38012
3125	0	34248	32808	38000
3126	0	34228	32796	38004
3127	0	34212	32780	37992
3128	0	34200	32780	37980
3129	0	34168	32780	37964
3130	0	34140	32764	37948
3131	0	34136	32760	37932
3132	0	34096	32764	37920
3133	0	34064	32772	37928
3134	0	34041	32784	37920
3135	0	34004	32776	37872
3136	0	33992	32784	37860
3137	0	33976	32780	37820
3138	0	33952	32780	37788
3139	0	33932	32776	37780
3140	0	33908	32785	37776
3141	0	33888	32776	37768
3142	0	33864	32776	37760
3143	0	33848	32776	37740
3144	0	33840	32785	37736
3145	0	33820	32776	37725
3146	0	33792	32780	37701
3147	0	33776	32765	37704
3148	0	33752	32768	37716
3149	0	33740	32764	37725
3150	0	33744	32764	37720
3151	0	33736	32772	37740
3152	0	33732	32780	37756
3153	0	33725	32784	37748
3154	0	33720	32780	37768
3155	0	33732	32781	37764
3156	0	33728	32792	37768
3157	0	33736	32776	37780
3158	0	33736	32792	37784
3159	0	33748	32780	37800
3160	0	33760	32780	37808
3161	0	33760	32788	37800
3162	0	33768	32780	37808
3163	0	33772	32784	37824
3164	0	33768	32760	37820
3165	0	33756	32781	37840
3166	0	33756	32764	37832
3167	0	33744	32768	37856
3168	0	33752	32760	37852
3169	0	33744	32768	37873
3170	0	33736	32764	37876
3171	0	33728	32776	37888
3172	0	33736	32756	37916
3173	0	33732	32760	37940
3174	0	33728	32756	37964
3175	0	33736	32744	37953
3176	0	33728	32749	37937
3177	0	33736	32740	37960
3178	0	33740	32740	37968
3179	0	33744	32748	37964
3180	0	33748	32752	37960
3181	0	33752	32756	37988
3182	0	33760	32748	37960
3183	0	33760	32748	37968
3184	0	33760	32748	37972
3185	0	33760	32744	37964
3186	0	33749	32752	37960
3187	0	33744	32744	37952
3188	0	33752	32740	37952
3189	0	33748	32728	37952
3190	0	33752	32720	37948
3191	0	33748	32716	37944
3192	0	33748	32708	37981
3193	0	33736	32724	37984
3194	0	33736	32724	37992
3195	0	33744	32728	37988
3196	0	33740	32708	38016
3197	0	33748	32708	38024
3198	0	33736	32704	38040
3199	0	33744	32692	38084
3200	0	33744	32684	38084
3201	0	33732	32688	38108
3202	0	33728	32668	38116
3203	0	33720	32676	38144
3204	0	33700	32676	38160
3205	0	33664	32689	38160
3206	0	33656	32684	38120
3207	0	33632	32688	38116
3208	0	33620	32688	38084
3209	0	33592	32672	38092
3210	0	33576	32672	38060
3211	0	33576	32664	38064
3212	0	33564	32660	38056
3213	0	33544	32672	38060
3214	0	33520	32660	38036
3215	0	33504	32660	38020
3216	0	33488	32664	37996
3217	0	33480	32664	37996
3218	0	33460	32664	37984
3219	0	33440	32648	37989
3220	0	33416	32669	37976
3221	0	33408	32668	37992
3222	0	33396	32672	37984
3223	0	33376	32672	38000
3224	0	33364	32679	38012
3225	0	33344	32680	38004
3226	0	33332	32676	37992
3227	0	33344	32660	38004
3228	0	33344	32656	38020
3229	0	33328	32660	38012
3230	0	33336	32656	38020
3231	0	33336	32656	38032
3232	0	33308	32652	38024
3233	0	33300	32652	38004
3234	0	33292	32664	37992
3235	0	33264	32648	37984
3236	0	33256	32644	38012
3237	0	33256	32640	38012
3238	0	33248	32664	38000
3239	0	33220	32664	38012
3240	0	33200	32660	38012
3241	0	33208	32660	38008
3242	0	33192	32649	37988
3243	0	33180	32648	37973
3244	0	33164	32660	37984
3245	0	33160	32660	37996
3246	0	33140	32648	37996
3247	0	33128	32664	37992
3248	0	33096	32656	37976
3249	0	33096	32633	38008
3250	0	33068	32640	38016
3251	0	33056	32644	38016
3252	0	33032	32640	38008
3253	0	33004	32640	38000
3254	0	32988	32644	37992
3255	0	32976	32648	37964
3256	0	32972	32653	37984
3257	0	32960	32656	38008
3258	0	32936	32656	38024
3259	0	32924	32646	38012
3260	0	32912	32644	38028
3261	0	32908	32644	38012
3262	0	32908	32637	38008
3263	0	32904	32636	38012
3264	0	32896	32624	38044
3265	0	32900	32644	38028
3266	0	32892	32630	38044
3267	0	32873	32632	38068
3268	0	32868	32664	38040
3269	0	32840	32656	38044
3270	0	32856	32644	38076
3271	0	32840	32653	38044
3272	0	32840	32660	38040
3273	0	32844	32644	38060
3274	0	32844	32636	38088
3275	0	32856	32676	38060
3276	0	32844	32696	38064
3277	0	32848	32676	38076
3278	0	32872	32648	38132
3279	0	32880	32684	38124
3280	0	32856	32677	38144
3281	0	32844	32665	38175
3282	0	32832	32660	38176
3283	0	32844	32652	38156
3284	0	32832	32692	38124
3285	0	32852	32708	38080
3286	0	32860	32664	38132
3287	0	32840	32648	38224
3288	0	32792	32672	38272
3289	0	32752	32712	38204
3290	0	32744	32716	38084
3291	0	32744	32640	38156
3292	0	32712	32672	38176
3293	0	32680	32660	38180
3294	0	32648	32638	38184
3295	0	32612	32680	38148
3296	0	32624	32656	38076
3297	0	32592	32696	38016
3298	0	32552	32696	38044
3299	0	32536	32592	38216
3300	0	32524	32576	38312
3301	0	32460	32588	38400
3302	0	32412	32609	38328
3303	0	32420	32625	38192
3304	0	32408	32600	38096
3305	0	32412	32582	38088
3306	0	32380	32633	38073
3307	0	32380	32568	38136
3308	0	32380	32586	38188
3309	0	32416	32604	38176
3310	0	32412	32588	38200
3311	0	32424	32528	38232
3312	0	32436	32552	38196
3313	0	32432	32556	38176
3314	0	32368	32568	38276
3315	0	32348	32576	38228
3316	0	32352	32572	38120
3317	0	32336	32540	38048
3318	0	32296	32584	38052
3319	0	32280	32532	38060
3320	0	32296	32520	38092
3321	0	32320	32560	38024
3322	0	32272	32537	38076
3323	0	32288	32552	37980
3324	0	32240	32560	37960
3325	0	32232	32548	37956
3326	0	32196	32496	37964
3327	0	32144	32544	37924
3328	0	32076	32548	37856
3329	0	32032	32520	37920
3330	0	32040	32496	37876
3331	0	31992	32524	37828
3332	0	31960	32490	37724
3333	0	31944	32508	37712
3334	0	31900	32520	37816
3335	0	31880	32528	37808
3336	0	31828	32616	37764
3337	0	31788	32648	37808
3338	0	31672	32732	37960
3339	0	31672	32544	37972
3340	0	31696	32356	37824
3341	0	31748	32288	37712
3342	0	31736	32340	37640
3343	0	31729	32400	37644
3344	0	31720	32513	37612
3345	0	31724	32576	37604
3346	0	31716	32556	37584
3347	0	31716	32480	37624
3348	0	31700	32564	37596
3349	0	31692	32472	37620
3350	0	31700	32416	37668
3351	0	31640	32524	37664
3352	0	31600	32544	37624
3353	0	31616	32504	37652
3354	0	31601	32532	37716
3355	0	31596	32528	37772
3356	0	31592	32524	37768
3357	0	31564	32484	37804
3358	0	31532	32520	37784
3359	0	31524	32544	37793
3360	0	31512	32509	37836
3361	0	31472	32477	37860
3362	0	31476	32484	37824
3363	0	31456	32496	37824
3364	0	31448	32448	37893
3365	0	31428	32416	37960
3366	0	31360	32520	37876
3367	0	31356	32448	37820
3368	0	31320	32416	37808
3369	0	31264	32496	37773
3370	0	31252	32424	37812
3371	0	31196	32424	37840
3372	0	31148	32460	37808
3373	0	31120	32473	37768
3374	0	31120	32432	37712
3375	0	31096	32356	37772
3376	0	30994	32448	37824
3377	0	30968	32457	37805
3378	0	30932	32500	37720
3379	0	30920	32460	37768
3380	0	30928	32368	37780
3381	0	30908	32360	37768
3382	0	30888	32392	37756
3383	0	30860	32416	37668
3384	0	30844	32428	37632
3385	0	30864	32332	37656
3386	0	30844	32428	37640
3387	0	30800	32420	37604
3388	0	30792	32400	37656
3389	0	30808	32448	37600
3390	0	30884	32340	37680
3391	0	30832	32392	37728
3392	0	30765	32432	37652
3393	0	30708	32396	37600
3394	0	30714	32412	37540
3395	0	30792	32308	37636
3396	0	30892	32324	37672
3397	0	30868	32324	37696
3398	0	30856	32353	37660
3399	0	30816	32404	37624
3400	0	30792	32392	37620
3401	0	30752	32341	37684
3402	0	30720	32336	37672
3403	0	30736	32320	37596
3404	0	30706	32340	37552
3405	0	30704	32288	37484
3406	0	30664	32285	37464
3407	0	30664	32280	37496
3408	0	30596	32324	37508
3409	0	30608	32284	37512
3410	0	30621	32300	37496
3411	0	30588	32352	37400
3412	0	30556	32325	37408
3413	0	30584	32328	37428
3414	0	30588	32333	37460
3415	0	30556	32349	37456
3416	0	30552	32400	37356
3417	0	30544	32404	37340
3418	0	30556	32408	37340
3419	0	30584	32376	37356
3420	0	30584	32344	37352
3421	0	30604	32396	37340
3422	0	30584	32420	37352
3423	0	30596	32404	37380
3424	0	30608	32364	37432
3425	0	30597	32348	37396
3426	0	30588	32352	37316
3427	0	30580	32352	37348
3428	0	30580	32388	37332
3429	0	30600	32345	37356
3430	0	30612	32312	37412
3431	0	30640	32340	37428
3432	0	30624	32352	37380
3433	0	30608	32376	37320
3434	0	30584	32356	37336
3435	0	30592	32369	37292
3436	0	30596	32350	37288
3437	0	30576	32304	37272
3438	0	30548	32345	37160
3439	0	30521	32340	37112
3440	0	30520	32320	37112
3441	0	30520	32312	37104
3442	0	30520	32328	37092
3443	0	30508	32356	37048
3444	0	30508	32384	37056
3445	0	30492	32392	37072
3446	0	30492	32400	37088
3447	0	30488	32377	37120
3448	0	30492	32392	37148
3449	0	30492	32412	37168
3450	0	30492	32440	37200
3451	0	30488	32448	37220
3452	0	30488	32432	37246
3453	0	30488	32416	37280
3454	0	30476	32420	37308
3455	0	30456	32428	37320
3456	0	30444	32444	37352
3457	0	30426	32436	37352
3458	0	30440	32392	37380
3459	0	30404	32416	37400
3460	0	30364	32484	37400
3461	0	30356	32500	37392
3462	0	30356	32424	37452
3463	0	30360	32408	37464
3464	0	30316	32472	37436
3465	0	30292	32445	37428
3466	0	30272	32401	37448
3467	0	30268	32372	37432
3468	0	30220	32420	37420
3469	0	30196	32468	37356
3470	0	30200	32448	37344
3471	0	30192	32444	37344
3472	0	30192	32408	37336
3473	0	30184	32406	37341
3474	0	30180	32404	37372
3475	0	30176	32420	37360
3476	0	30176	32408	37356
3477	0	30164	32432	37348
3478	0	30156	32414	37340
3479	0	30172	32364	37360
3480	0	30168	32364	37364
3481	0	30176	32348	37384
3482	0	30184	32392	37352
3483	0	30184	32364	37372
3484	0	30176	32356	37384
3485	0	30184	32320	37412
3486	0	30184	32288	37408
3487	0	30150	32368	37332
3488	0	30100	32396	37224
3489	0	30080	32380	37196
3490	0	30076	32360	37212
3491	0	30080	32320	37276
3492	0	30100	32352	37320
3493	0	30112	32368	37288
3494	0	30112	32376	37240
3495	0	30112	32372	37204
3496	0	30125	32376	37212
3497	0	30148	32372	37224
3498	0	30168	32380	37292
3499	0	30168	32444	37228
3500	0	30160	32416	37164
3501	0	30172	32372	37216
3502	0	30173	32400	37160
3503	0	30192	32368	37160
3504	0	30184	32376	37140
3505	0	30180	32381	37096
3506	0	30184	32356	37096
3507	0	30196	32328	37068
3508	0	30176	32344	37072
3509	0	30168	32360	37072
3510	0	30172	32336	37120
3511	0	30180	32336	37116
3512	0	30188	32352	37092
3513	0	30196	32404	37028
3514	0	30208	32328	37032
3515	0	30208	32317	36976
3516	0	30216	32300	36992
3517	0	30224	32364	36968
3518	0	30228	32356	36972
3519	0	30220	32280	37056
3520	0	30208	32324	37024
3521	0	30212	32392	36956
3522	0	30204	32424	36960
3523	0	30200	32356	36968
3524	0	30212	32344	37052
3525	0	30217	32336	37060
3526	0	30196	32284	37052
3527	0	30180	32300	37036
3528	0	30145	32332	36988
3529	0	30146	32336	36976
3530	0	30116	32328	37012
3531	0	30096	32332	37016
3532	0	30100	32304	37064
3533	0	30092	32348	37036
3534	0	30100	32356	37008
3535	0	30088	32308	37064
3536	0	30072	32356	37060
3537	0	30048	32360	37056
3538	0	30056	32324	37092
3539	0	30024	32312	37084
3540	0	29988	32302	37088
3541	0	29960	32353	37040
3542	0	29924	32348	37060
3543	0	29920	32304	37092
3544	0	29920	32300	37096
3545	0	29908	32356	37052
3546	0	29884	32400	37044
3547	0	29896	32368	37104
3548	0	29928	32352	37168
3549	0	29952	32356	37168
3550	0	29960	32341	37136
3551	0	29949	32336	37096
3552	0	29952	32340	37096
3553	0	29940	32328	37120
3554	0	29924	32360	37116
3555	0	29908	32344	37096
3556	0	29872	32396	37092
3557	0	29856	32416	37060
3558	0	29848	32388	37052
3559	0	29832	32340	37084
3560	0	29800	32392	37060
3561	0	29784	32368	37088
3562	0	29760	32412	37060
3563	0	29728	32396	37044
3564	0	29704	32396	37012
3565	0	29692	32392	36940
3566	0	29668	32368	36964
3567	0	29664	32384	36948
3568	0	29664	32348	36928
3569	0	29676	32340	36924
3570	0	29664	32344	36917
3571	0	29640	32340	36880
3572	0	29636	32357	36844
3573	0	29620	32348	36816
3574	0	29604	32381	36804
3575	0	29616	32412	36804
3576	0	29628	32404	36828
3577	0	29660	32300	36880
3578	0	29660	32348	36884
3579	0	29664	32392	36836
3580	0	29652	32397	36852
3581	0	29648	32376	36856
3582	0	29660	32392	36848
3583	0	29664	32356	36884
3584	0	29672	32340	36921
3585	0	29672	32396	36880
3586	0	29664	32412	36800
3587	0	29660	32368	36820
3588	0	29680	32360	36820
3589	0	29688	32372	36816
3590	0	29688	32372	36840
3591	0	29696	32356	36848
3592	0	29720	32296	36904
3593	0	29716	32328	36856
3594	0	29696	32416	36764
3595	0	29680	32344	36764
3596	0	29688	32316	36806
3597	0	29700	32316	36780
3598	0	29700	32296	36816
3599	0	29700	32300	36788
3600	0	29716	32288	36796
3601	0	29704	32316	36760
3602	0	29704	32320	36728
3603	0	29708	32332	36704
3604	0	29700	32324	36692
3605	0	29700	32300	36688
3606	0	29708	32328	36692
3607	0	29716	32353	36696
3608	0	29716	32340	36716
3609	0	29716	32309	36732
3610	0	29716	32292	36780
3611	0	29732	32328	36780
3612	0	29740	32352	36744
3613	0	29748	32352	36724
3614	0	29760	32360	36765
3615	0	29760	32332	36804
3616	0	29752	32336	36784
3617	0	29752	32292	36848
3618	0	29748	32332	36848
3619	0	29728	32340	36864
3620	0	29720	32308	36892
3621	0	29708	32296	36872
3622	0	29685	32336	36824
3623	0	29680	32312	36852
3624	0	29668	32344	36824
3625	0	29664	32376	36781
3626	0	29664	32344	36792
3627	0	29656	32296	36792
3628	0	29640	32332	36792
3629	0	29632	32356	36760
3630	0	29600	32320	36728
3631	0	29584	32340	36728
3632	0	29572	32352	36748
3633	0	29576	32352	36772
3634	0	29572	32352	36764
3635	0	29564	32336	36804
3636	0	29556	32324	36772
3637	0	29544	32320	36764
3638	0	29524	32360	36768
3639	0	29528	32389	36772
3640	0	29528	32393	36780
3641	0	29516	32408	36744
3642	0	29536	32388	36712
3643	0	29536	32344	36744
3644	0	29540	32340	36749
3645	0	29532	32344	36748
3646	0	29524	32356	36708
3647	0	29524	32396	36680
3648	0	29528	32340	36680
3649	0	29512	32364	36689
3650	0	29512	32416	36664
3651	0	29500	32416	36676
3652	0	29496	32376	36672
3653	0	29468	32356	36688
3654	0	29444	32380	36645
3655	0	29416	32432	36600
3656	0	29384	32440	36596
3657	0	29344	32460	36568
3658	0	29324	32424	36552
3659	0	29296	32380	36556
3660	0	29292	32340	36524
3661	0	29272	32316	36512
3662	0	29260	32340	36492
3663	0	29272	32352	36472
3664	0	29280	32396	36452
3665	0	29288	32404	36444
3666	0	29288	32397	36464
3667	0	29292	32400	36456
3668	0	29296	32388	36456
3669	0	29312	32397	36464
3670	0	29309	32384	36468
3671	0	29296	32412	36472
3672	0	29312	32404	36485
3673	0	29316	32384	36481
3674	0	29296	32417	36452
3675	0	29280	32404	36444
3676	0	29272	32416	36416
3677	0	29284	32413	36416
3678	0	29256	32398	36412
3679	0	29269	32396	36440
3680	0	29270	32376	36472
3681	0	29268	32360	36480
3682	0	29276	32344	36476
3683	0	29260	32356	36456
3684	0	29248	32372	36440
3685	0	29264	32376	36452
3686	0	29268	32392	36424
3687	0	29260	32372	36440
3688	0	29264	32416	36428
3689	0	29244	32420	36408
3690	0	29240	32396	36396
3691	0	29240	32396	36372
3692	0	29248	32368	36388
3693	0	29248	32348	36404
3694	0	29268	32364	36400
3695	0	29268	32384	36409
3696	0	29276	32360	36420
3697	0	29264	32325	36456
3698	0	29264	32376	36440
3699	0	29256	32412	36428
3700	0	29264	32412	36392
3701	0	29272	32396	36420
3702	0	29304	32380	36456
3703	0	29320	32351	36484
3704	0	29308	32380	36484
3705	0	29308	32412	36449
3706	0	29297	32400	36460
3707	0	29300	32372	36492
3708	0	29320	32368	36500
3709	0	29308	32388	36516
3710	0	29304	32396	36456
3711	0	29288	32416	36440
3712	0	29276	32384	36468
3713	0	29276	32364	36476
3714	0	29264	32348	36448
3715	0	29232	32360	36400
3716	0	29216	32422	36348
3717	0	29228	32400	36358
3718	0	29232	32380	36368
3719	0	29212	32412	36368
3720	0	29212	32404	36348
3721	0	29208	32372	36404
3722	0	29204	32351	36392
3723	0	29184	32344	36376
3724	0	29152	32388	36320
3725	0	29128	32416	36314
3726	0	29144	32388	36328
3727	0	29144	32372	36368
3728	0	29132	32429	36344
3729	0	29124	32504	36296
3730	0	29136	32504	36272
3731	0	29152	32436	36288
3732	0	29152	32388	36308
3733	0	29164	32336	36336
3734	0	29132	32329	36309
3735	0	29112	32336	36300
3736	0	29076	32376	36320
3737	0	29064	32384	36316
3738	0	29069	32352	36344
3739	0	29064	32364	36336
3740	0	29037	32412	36340
3741	0	29036	32412	36360
3742	0	29028	32436	36324
3743	0	29016	32440	36316
3744	0	29008	32436	36300
3745	0	28992	32404	36312
3746	0	28980	32376	36320
3747	0	28960	32436	36296
3748	0	28952	32460	36244
3749	0	28960	32408	36256
3750	0	28960	32360	36268
3751	0	28952	32372	36256
3752	0	28944	32368	36244
3753	0	28928	32412	36216
3754	0	28936	32368	36221
3755	0	28924	32356	36224
3756	0	28932	32364	36208
3757	0	28920	32388	36160
3758	0	28908	32389	36140
3759	0	28908	32372	36148
3760	0	28912	32320	36148
3761	0	28888	32364	36104
3762	0	28864	32408	36068
3763	0	28880	32416	36048
3764	0	28892	32368	36056
3765	0	28888	32344	36048
3766	0	28888	32356	36044
3767	0	28872	32384	36032
3768	0	28848	32392	36004
3769	0	28856	32400	36012
3770	0	28856	32404	36008
3771	0	28848	32376	35988
3772	0	28844	32412	35968
3773	0	28852	32412	35944
3774	0	28868	32388	35956
3775	0	28836	32388	35936
3776	0	28840	32404	35928
3777	0	28856	32376	35928
3778	0	28872	32396	35932
3779	0	28872	32400	35916
3780	0	28860	32416	35880
3781	0	28852	32400	35868
3782	0	28852	32380	35856
3783	0	28872	32416	35828
3784	0	28856	32404	35816
3785	0	28856	32396	35812
3786	0	28864	32396	35800
3787	0	28872	32399	35788
3788	0	28860	32416	35756
3789	0	28864	32364	35780
3790	0	28864	32344	35792
3791	0	28864	32364	35768
3792	0	28852	32356	35764
3793	0	28856	32356	35752
3794	0	28856	32368	35728
3795	0	28848	32404	35680
3796	0	28832	32408	35656
3797	0	28848	32392	35680
3798	0	28852	32388	35680
3799	0	28864	32367	35656
3800	0	28856	32360	35648
3801	0	28864	32356	35632
3802	0	28864	32384	35568
3803	0	28856	32388	35568
3804	0	28860	32397	35584
3805	0	28849	32381	35616
3806	0	28836	32384	35604
3807	0	28832	32413	35572
3808	0	28812	32404	35560
3809	0	28812	32380	35556
3810	0	28800	32392	35548
3811	0	28784	32372	35564
3812	0	28772	32376	35548
3813	0	28768	32368	35564
3814	0	28756	32372	35580
3815	0	28724	32388	35596
3816	0	28688	32428	35605
3817	0	28644	32456	35584
3818	0	28640	32473	35580
3819	0	28648	32428	35616
3820	0	28642	32404	35620
3821	0	28618	32416	35596
3822	0	28588	32456	35528
3823	0	28568	32465	35528
3824	0	28572	32440	35520
3825	0	28560	32456	35532
3826	0	28572	32388	35532
3827	0	28580	32324	35496
3828	0	28544	32340	35477
3829	0	28520	32368	35468
3830	0	28488	32381	35428
3831	0	28464	32376	35356
3832	0	28424	32364	35296
3833	0	28392	32384	35240
3834	0	28364	32385	35184
3835	0	28320	32392	35148
3836	0	28284	32400	35133
3837	0	28260	32384	35104
3838	0	28208	32420	35092
3839	0	28180	32432	35060
3840	0	28144	32444	35036
3841	0	28128	32456	35021
3842	0	28104	32456	35036
3843	0	28080	32484	35024
3844	0	28052	32476	35040
3845	0	28040	32480	35037
3846	0	28040	32484	35036
3847	0	28040	32496	35036
3848	0	28044	32484	35040
3849	0	28060	32484	35076
3850	0	28084	32480	35080
3851	0	28096	32468	35080
3852	0	28124	32460	35056
3853	0	28136	32448	35040
3854	0	28156	32436	35036
3855	0	28196	32420	35004
3856	0	28216	32440	34972
3857	0	28252	32424	34964
3858	0	28292	32472	34944
3859	0	28304	32569	34912
3860	0	28288	32758	34880
3861	0	28300	32864	34896
3862	0	28352	32764	35016
3863	0	28388	32596	35100
3864	0	28413	32474	35128
3865	0	28416	32408	35100
3866	0	28384	32444	35040
3867	0	28384	32400	35004
3868	0	28372	32380	34964
3869	0	28384	32376	34932
3870	0	28384	32405	34864
3871	0	28376	32436	34816
3872	0	28388	32440	34768
3873	0	28376	32416	34766
3874	0	28372	32412	34740
3875	0	28376	32360	34732
3876	0	28368	32333	34692
3877	0	28368	32380	34628
3878	0	28360	32400	34600
3879	0	28360	32353	34648
3880	0	28356	32360	34640
3881	0	28344	32392	34604
3882	0	28344	32372	34576
3883	0	28352	32376	34592
3884	0	28352	32364	34624
3885	0	28356	32384	34596
3886	0	28352	32416	34589
3887	0	28368	32412	34572
3888	0	28360	32388	34620
3889	0	28368	32425	34648
3890	0	28372	32424	34656
3891	0	28368	32424	34668
3892	0	28377	32448	34632
3893	0	28380	32436	34620
3894	0	28384	32440	34656
3895	0	28384	32448	34653
3896	0	28384	32444	34660
3897	0	28384	32456	34656
3898	0	28376	32472	34652
3899	0	28364	32452	34688
3900	0	28352	32428	34672
3901	0	28332	32404	34676
3902	0	28324	32384	34656
3903	0	28308	32413	34612
3904	0	28296	32448	34604
3905	0	28284	32464	34620
3906	0	28273	32464	34600
3907	0	28244	32488	34572
3908	0	28224	32472	34556
3909	0	28208	32448	34564
3910	0	28196	32436	34532
3911	0	28188	32420	34532
3912	0	28184	32420	34536
3913	0	28160	32420	34548
3914	0	28156	32444	34536
3915	0	28140	32460	34500
3916	0	28140	32472	34480
3917	0	28124	32480	34488
3918	0	28112	32492	34496
3919	0	28100	32484	34480
3920	0	28092	32493	34448
3921	0	28072	32496	34420
3922	0	28056	32504	34400
3923	0	28048	32492	34392
3924	0	28016	32508	34380
3925	0	28004	32508	34375
3926	0	27984	32524	34384
3927	0	27956	32516	34400
3928	0	27940	32540	34388
3929	0	27952	32560	34368
3930	0	27924	32552	34368
3931	0	27908	32528	34368
3932	0	27888	32497	34380
3933	0	27868	32480	34360
3934	0	27852	32492	34324
3935	0	27840	32553	34280
3936	0	27836	32524	34288
3937	0	27808	32444	34296
3938	0	27828	32468	34249
3939	0	27840	32480	34184
3940	0	27844	32428	34188
3941	0	27852	32396	34152
3942	0	27844	32376	34152
3943	0	27840	32364	34160
3944	0	27868	32412	34140
3945	0	27852	32420	34092
3946	0	27860	32380	34072
3947	0	27868	32384	34060
3948	0	27872	32397	34045
3949	0	27904	32428	34032
3950	0	27908	32432	34030
3951	0	27892	32388	34024
3952	0	27920	32380	33968
3953	0	27968	32396	33920
3954	0	27980	32388	33893
3955	0	27996	32360	33892
3956	0	28032	32388	33888
3957	0	28040	32352	33896
3958	0	28044	32350	33904
3959	0	28048	32372	33896
3960	0	28065	32344	33888
3961	0	28084	32380	33884
3962	0	28096	32396	33888
3963	0	28096	32392	33896
3964	0	28088	32357	33885
3965	0	28125	32376	33848
3966	0	28140	32356	33868
3967	0	28156	32364	33896
3968	0	28168	32384	33912
3969	0	28156	32348	33976
3970	0	28160	32368	33976
3971	0	28148	32320	33952
3972	0	28136	32352	33936
3973	0	28152	32384	33920
3974	0	28136	32400	33932
3975	0	28140	32420	33912
3976	0	28128	32388	33908
3977	0	28116	32392	33901
3978	0	28132	32388	33836
3979	0	28128	32368	33848
3980	0	28108	32360	33864
3981	0	28100	32377	33832
3982	0	28116	32428	33784
3983	0	28120	32420	33776
3984	0	28124	32392	33792
3985	0	28126	32400	33776
3986	0	28128	32412	33725
3987	0	28108	32380	33716
3988	0	28097	32360	33724
3989	0	28108	32360	33672
3990	0	28116	32376	33640
3991	0	28120	32360	33648
3992	0	28136	32388	33640
3993	0	28136	32404	33636
3994	0	28116	32388	33684
3995	0	28084	32364	33712
3996	0	28084	32373	33692
3997	0	28080	32428	33632
3998	0	28064	32412	33652
3999	0	28040	32360	33676
4000	0	28024	32341	33661
4001	0	28032	32380	33644
4002	0	28048	32420	33572
4003	0	28028	32400	33565
4004	0	28032	32400	33572
4005	0	28028	32400	33552
4006	0	28028	32421	33524
4007	0	28024	32428	33508
4008	0	28028	32424	33516
4009	0	28016	32408	33521
4010	0	28016	32381	33512
4011	0	28016	32392	33484
4012	0	28012	32384	33476
4013	0	28008	32376	33460
4014	0	27992	32376	33448
4015	0	27993	32404	33392
4016	0	28004	32396	33376
4017	0	28000	32400	33376
4018	0	27984	32396	33392
4019	0	27968	32404	33380
4020	0	27944	32420	33360
4021	0	27920	32436	33340
4022	0	27916	32440	33340
4023	0	27889	32462	33316
4024	0	27864	32468	33284
4025	0	27852	32464	33292
4026	0	27840	32449	33280
4027	0	27820	32448	33280
4028	0	27812	32456	33232
4029	0	27788	32456	33228
4030	0	27784	32456	33212
4031	0	27788	32464	33220
4032	0	27777	32456	33216
4033	0	27784	32448	33196
4034	0	27788	32444	33184
4035	0	27808	32436	33148
4036	0	27816	32444	33124
4037	0	27816	32445	33132
4038	0	27852	32440	33126
4039	0	27860	32452	33125
4040	0	27868	32440	33112
4041	0	27864	32444	33092
4042	0	27868	32448	33084
4043	0	27865	32448	33080
4044	0	27872	32432	33064
4045	0	27872	32429	33056
4046	0	27888	32417	33028
4047	0	27888	32416	33001
4048	0	27900	32424	32984
4049	0	27908	32408	32989
4050	0	27920	32413	32980
4051	0	27902	32417	32964
4052	0	27912	32412	32944
4053	0	27912	32444	32900
4054	0	27924	32520	32876
4055	0	28112	32873	32704
4056	0	28332	33208	32608
4057	0	28144	32876	33056
4058	0	27892	32536	33376
4059	0	27836	32396	33304
4060	0	27849	32397	33120
4061	0	27897	32464	32928
4062	0	27928	32481	32856
4063	0	28000	32476	32832
4064	0	27980	32436	32844
4065	0	27984	32444	32764
4066	0	28040	32476	32664
4067	0	28064	32464	32624
4068	0	28096	32504	32552
4069	0	28128	32508	32510
4070	0	28112	32500	32492
4071	0	28096	32444	32521
4072	0	28068	32436	32476
4073	0	28064	32428	32464
4074	0	28060	32428	32449
4075	0	28104	32492	32348
4076	0	28088	32484	32376
4077	0	28048	32456	32437
4078	0	28032	32460	32460
4079	0	28060	32504	32413
4080	0	28036	32512	32380
4081	0	28012	32480	32444
4082	0	28020	32468	32424
4083	0	28008	32480	32400
4084	0	27988	32392	32388
4085	0	27888	32308	32524
4086	0	27848	32384	32712
4087	0	27806	32484	32836
4088	0	27688	32510	32960
4089	0	27772	32568	32912
4090	0	27824	32584	32820
4091	0	27872	32584	32744
4092	0	27956	32552	32624
4093	0	27976	32568	32564
4094	0	27952	32548	32504
4095	0	27976	32532	32440
4096	0	28000	32532	32381
4097	0	28048	32528	32320
4098	0	28094	32528	32224
4099	0	28140	32544	32184
4100	0	28136	32540	32141
4101	0	28112	32520	32120
4102	0	28064	32496	32136
4103	0	28041	32506	32112
4104	0	28128	32536	32013
4105	0	28080	32528	32012
4106	0	28144	32552	31996
4107	0	28056	32512	32072
4108	0	28028	32500	32112
4109	0	28076	32544	32068
4110	0	28116	32580	32012
4111	0	28080	32576	31998
4112	0	28024	32557	32004
4113	0	27952	32524	32050
4114	0	27937	32525	32036
4115	0	27968	32520	32014
4116	0	27968	32548	32044
4117	0	27962	32560	32056
4118	0	27905	32560	32092
4119	0	27916	32576	32084
4120	0	27880	32592	32096
4121	0	27860	32608	32080
4122	0	27804	32584	32072
4123	0	27792	32568	32076
4124	0	27828	32560	32000
4125	0	27860	32560	31960
4126	0	27908	32588	31912
4127	0	28004	32592	31876
4128	0	28068	32624	31860
4129	0	28128	32636	31856
4130	0	28172	32640	31872
4131	0	28200	32636	31872
4132	0	28224	32624	31888
4133	0	28228	32608	31870
4134	0	28237	32596	31848
4135	0	28244	32577	31836
4136	0	28264	32576	31804
4137	0	28257	32576	31784
4138	0	28268	32568	31788
4139	0	28264	32584	31788
4140	0	28248	32556	31772
4141	0	28234	32560	31764
4142	0	28220	32544	31772
4143	0	28196	32548	31744
4144	0	28188	32544	31756
4145	0	28180	32552	31732
4146	0	28172	32548	31712
4147	0	28144	32552	31688
4148	0	28128	32532	31684
4149	0	28096	32536	31680
4150	0	28092	32540	31664
4151	0	28080	32532	31652
4152	0	28072	32532	31660
4153	0	28076	32524	31684
4154	0	28048	32520	31700
4155	0	28044	32536	31696
4156	0	28048	32524	31672
4157	0	28040	32544	31668
4158	0	28034	32536	31664
4159	0	28020	32544	31664
4160	0	28028	32552	31656
4161	0	28040	32544	31648
4162	0	28056	32548	31668
4163	0	28056	32556	31648
4164	0	28056	32560	31676
4165	0	28076	32552	31652
4166	0	28064	32560	31648
4167	0	28076	32552	31652
4168	0	28076	32548	31652
4169	0	28072	32564	31648
4170	0	28072	32564	31644
4171	0	28060	32568	31632
4172	0	28056	32568	31608
4173	0	28068	32560	31596
4174	0	28088	32556	31588
4175	0	28100	32540	31584
4176	0	28104	32536	31566
4177	0	28124	32528	31552
4178	0	28128	32544	31536
4179	0	28136	32540	31532
4180	0	28148	32532	31501
4181	0	28168	32528	31480
4182	0	28172	32541	31481
4183	0	28176	32552	31448
4184	0	28191	32544	31456
4185	0	28196	32544	31436
4186	0	28204	32552	31424
4187	0	28232	32552	31400
4188	0	28232	32568	31404
4189	0	28236	32576	31380
4190	0	28244	32584	31364
4191	0	28256	32584	31340
4192	0	28264	32600	31332
4193	0	28264	32600	31308
4194	0	28276	32608	31308
4195	0	28288	32612	31276
4196	0	28292	32604	31256
4197	0	28309	32608	31236
4198	0	28320	32620	31245
4199	0	28333	32620	31196
4200	0	28340	32624	31173
4201	0	28337	32632	31168
4202	0	28344	32628	31168
4203	0	28344	32624	31168
4204	0	28344	32632	31152
4205	0	28352	32636	31152
4206	0	28344	32640	31148
4207	0	28336	32656	31133
4208	0	28344	32648	31112
4209	0	28360	32656	31120
4210	0	28360	32644	31120
4211	0	28348	32644	31128
4212	0	28336	32656	31132
4213	0	28328	32656	31124
4214	0	28328	32644	31104
4215	0	28320	32624	31108
4216	0	28288	32636	31072
4217	0	28272	32640	31080
4218	0	28252	32632	31072
4219	0	28232	32644	31076
4220	0	28224	32624	31088
4221	0	28212	32632	31092
4222	0	28197	32624	31084
4223	0	28204	32612	31084
4224	0	28192	32624	31096
4225	0	28188	32616	31116
4226	0	28184	32604	31136
4227	0	28168	32620	31128
4228	0	28152	32612	31124
4229	0	28144	32617	31104
4230	0	28128	32616	31097
4231	0	28124	32605	31116
4232	0	28132	32584	31093
4233	0	28152	32588	31088
4234	0	28140	32596	31080
4235	0	28144	32588	31076
4236	0	28165	32572	31088
4237	0	28184	32572	31076
4238	0	28200	32568	31080
4239	0	28204	32568	31100
4240	0	28208	32580	31092
4241	0	28196	32592	31080
4242	0	28216	32604	31076
4243	0	28232	32600	31076
4244	0	28232	32608	31061
4245	0	28248	32592	31049
4246	0	28248	32597	31037
4247	0	28260	32592	31004
4248	0	28264	32592	30992
4249	0	28276	32592	30986
4250	0	28288	32596	30952
4251	0	28312	32604	30932
4252	0	28324	32604	30928
4253	0	28328	32592	30916
4254	0	28352	32592	30916
4255	0	28364	32592	30888
4256	0	28384	32592	30852
4257	0	28412	32588	30828
4258	0	28432	32592	30800
4259	0	28456	32592	30788
4260	0	28478	32596	30784
4261	0	28488	32600	30768
4262	0	28500	32600	30740
4263	0	28512	32600	30740
4264	0	28520	32608	30708
4265	0	28528	32617	30708
4266	0	28544	32628	30704
4267	0	28560	32608	30696
4268	0	28584	32616	30693
4269	0	28580	32629	30688
4270	0	28593	32624	30673
4271	0	28608	32620	30684
4272	0	28616	32636	30692
4273	0	28608	32636	30688
4274	0	28618	32632	30684
4275	0	28636	32628	30692
4276	0	28632	32628	30705
4277	0	28628	32640	30704
4278	0	28608	32632	30716
4279	0	28608	32636	30704
4280	0	28588	32632	30729
4281	0	28576	32632	30756
4282	0	28552	32656	30774
4283	0	28544	32613	30776
4284	0	28512	32484	30776
4285	0	28444	32520	30930
4286	0	28328	32596	31157
4287	0	28260	32632	31244
4288	0	28264	32660	31188
4289	0	28308	32664	31060
4290	0	28368	32676	30904
4291	0	28425	32672	30824
4292	0	28472	32656	30745
4293	0	28528	32652	30680
4294	0	28576	32664	30596
4295	0	28620	32672	30524
4296	0	28660	32680	30476
4297	0	28696	32688	30444
4298	0	28708	32704	30448
4299	0	28724	32700	30472
4300	0	28720	32688	30461
4301	0	28720	32688	30448
4302	0	28700	32696	30472
4303	0	28684	32680	30444
4304	0	28672	32708	30448
4305	0	28656	32696	30500
4306	0	28633	32696	30524
4307	0	28604	32698	30588
4308	0	28576	32708	30624
4309	0	28576	32704	30657
4310	0	28552	32708	30672
4311	0	28520	32708	30689
4312	0	28517	32704	30712
4313	0	28512	32704	30728
4314	0	28512	32704	30744
4315	0	28508	32704	30752
4316	0	28508	32708	30764
4317	0	28528	32692	30780
4318	0	28540	32692	30760
4319	0	28524	32696	30776
4320	0	28512	32696	30776
4321	0	28500	32696	30792
4322	0	28464	32696	30784
4323	0	28440	32756	30808
4324	0	28540	32796	30780
4325	0	28968	32936	30644
4326	0	29664	33056	30528
4327	0	29356	32860	30852
4328	0	28928	32713	30960
4329	0	28613	32608	30748
4330	0	28672	32600	30376
4331	0	28732	32568	30128
4332	0	28708	32572	30088
4333	0	28584	32564	30196
4334	0	28608	32584	30260
4335	0	28552	32608	30304
4336	0	28600	32660	30308
4337	0	28712	32684	30312
4338	0	28672	32696	30348
4339	0	28596	32648	30408
4340	0	28524	32624	30377
4341	0	28568	32644	30280
4342	0	28580	32654	30244
4343	0	28512	32632	30276
4344	0	28536	32642	30248
4345	0	28636	32672	30208
4346	0	28596	32664	30232
4347	0	28532	32640	30280
4348	0	28492	32621	30292
4349	0	28440	32596	30296
4350	0	28476	32592	30272
4351	0	28544	32613	30264
4352	0	28596	32636	30296
4353	0	28552	32620	30356
4354	0	28552	32636	30392
4355	0	28584	32632	30400
4356	0	28593	32624	30400
4357	0	28608	32636	30416
4358	0	28648	32644	30414
4359	0	28688	32660	30440
4360	0	28720	32692	30452
4361	0	28734	32704	30488
4362	0	28732	32708	30520
4363	0	28736	32709	30516
4364	0	28752	32700	30536
4365	0	28756	32696	30564
4366	0	28764	32688	30561
4367	0	28772	32688	30524
4368	0	28793	32684	30510
4369	0	28816	32677	30452
4370	0	28804	32684	30428
4371	0	28784	32692	30396
4372	0	28770	32700	30376
4373	0	28772	32712	30360
4374	0	28784	32700	30328
4375	0	28772	32704	30308
4376	0	28768	32696	30300
4377	0	28836	32684	30289
4378	0	28892	32684	30252
4379	0	28936	32720	30204
4380	0	28985	32712	30172
4381	0	29004	32732	30140
4382	0	29040	32736	30148
4383	0	29092	32756	30136
4384	0	29120	32760	30136
4385	0	29084	32752	30156
4386	0	29100	32777	30172
4387	0	29260	32820	30200
4388	0	29308	32836	30244
4389	0	29212	32812	30336
4390	0	29048	32760	30360
4391	0	28896	32712	30292
4392	0	28764	32677	30244
4393	0	28624	32664	30196
4394	0	28520	32648	30174
4395	0	28468	32664	30144
4396	0	28392	32668	30180
4397	0	28384	32664	30228
4398	0	28392	32692	30240
4399	0	28328	32716	30284
4400	0	28328	32728	30328
4401	0	28304	32752	30400
4402	0	28468	32740	30409
4403	0	28664	32760	30361
4404	0	28972	32780	30284
4405	0	29196	32796	30216
4406	0	29228	32756	30128
4407	0	29188	32700	30128
4408	0	29101	32672	30300
4409	0	28992	32701	30536
4410	0	28897	32728	30696
4411	0	28864	32740	30732
4412	0	28852	32757	30684
4413	0	28880	32732	30564
4414	0	28920	32720	30440
4415	0	28960	32704	30320
4416	0	29008	32688	30216
4417	0	29036	32696	30165
4418	0	29056	32708	30144
4419	0	29096	32704	30113
4420	0	29128	32720	30100
4421	0	29144	32724	30060
4422	0	29156	32744	30028
4423	0	29140	32724	30036
4424	0	29132	32732	30056
4425	0	29124	32736	30084
4426	0	29120	32712	30128
4427	0	29100	32712	30120
4428	0	29068	32720	30152
4429	0	29040	32740	30194
4430	0	29004	32736	30220
4431	0	28992	32744	30232
4432	0	28968	32720	30212
4433	0	28920	32728	30208
4434	0	28812	32728	30260
4435	0	28728	32729	30304
4436	0	28740	32708	30324
4437	0	28804	32724	30292
4438	0	28908	32732	30172
4439	0	28996	32762	30044
4440	0	29020	32760	29980
4441	0	29008	32776	29940
4442	0	28948	32772	29948
4443	0	28892	32788	29972
4444	0	28880	32788	29996
4445	0	28872	32804	30008
4446	0	28852	32808	29988
4447	0	28852	32800	29961
4448	0	28832	32798	29933
4449	0	28832	32800	29936
4450	0	28820	32820	29940
4451	0	28832	32808	29932
4452	0	28888	32792	29896
4453	0	28924	32796	29860
4454	0	28940	32800	29800
4455	0	28932	32816	29804
4456	0	28856	32832	29820
4457	0	28765	32856	29829
4458	0	28632	32872	29848
4459	0	28340	32916	29876
4460	0	28056	32936	29960
4461	0	28076	32924	30028
4462	0	28336	32864	30000
4463	0	28592	32816	29844
4464	0	28856	32796	29672
4465	0	29028	32808	29516
4466	0	29208	32792	29436
4467	0	29320	32760	29416
4468	0	29308	32780	29476
4469	0	29280	32800	29592
4470	0	29176	32840	29740
4471	0	29172	32832	29860
4472	0	29176	32832	29928
4473	0	29116	32852	29960
4474	0	28996	32863	29964
4475	0	28904	32864	29984
4476	0	28904	32852	29980
4477	0	28900	32864	29932
4478	0	28880	32872	29872
4479	0	28868	32856	29836
4480	0	28908	32832	29796
4481	0	29008	32820	29776
4482	0	29076	32835	29732
4483	0	29124	32800	29712
4484	0	29160	32792	29720
4485	0	29188	32796	29748
4486	0	29180	32808	29768
4487	0	29144	32812	29821
4488	0	29120	32824	29880
4489	0	29096	32832	29936
4490	0	29076	32828	29948
4491	0	29072	32828	29968
4492	0	29076	32844	29953
4493	0	29081	32852	29928
4494	0	29092	32856	29896
4495	0	29112	32844	29836
4496	0	29120	32840	29820
4497	0	29112	32836	29792
4498	0	29144	32848	29792
4499	0	29164	32856	29772
4500	0	29188	32868	29720
4501	0	29224	32872	29672
4502	0	29256	32868	29628
4503	0	29268	32885	29588
4504	0	29288	32888	29564
4505	0	29308	32892	29576
4506	0	29328	32888	29572
4507	0	29328	32896	29572
4508	0	29328	32904	29588
4509	0	29324	32904	29608
4510	0	29320	32920	29608
4511	0	29312	32928	29604
4512	0	29305	32928	29612
4513	0	29296	32928	29601
4514	0	29284	32928	29608
4515	0	29292	32900	29600
4516	0	29268	32896	29592
4517	0	29264	32894	29580
4518	0	29240	32908	29588
4519	0	29232	32888	29600
4520	0	29212	32892	29608
4521	0	29216	32876	29610
4522	0	29192	32880	29640
4523	0	29184	32880	29645
4524	0	29180	32880	29632
4525	0	29168	32880	29644
4526	0	29144	32864	29652
4527	0	29120	32868	29656
4528	0	29104	32880	29688
4529	0	29104	32876	29700
4530	0	29076	32872	29728
4531	0	29024	32876	29780
4532	0	28980	32880	29805
4533	0	28864	32888	29884
4534	0	28812	32889	29956
4535	0	28856	32836	29984
4536	0	29048	32808	29908
4537	0	29152	32816	29752
4538	0	28880	32892	29608
4539	0	28652	32920	29581
4540	0	28472	32932	29676
4541	0	28436	32924	29748
4542	0	28620	32880	29753
4543	0	28872	32856	29692
4544	0	29124	32816	29600
4545	0	29152	32824	29504
4546	0	29196	32820	29564
4547	0	29332	32796	29616
4548	0	29340	32812	29676
4549	0	29432	32820	29732
4550	0	29433	32832	29768
4551	0	29308	32840	29836
4552	0	29324	32832	29920
4553	0	29380	32800	29928
4554	0	29428	32797	29900
4555	0	29320	32804	29849
4556	0	29272	32793	29856
4557	0	29184	32796	29860
4558	0	29148	32788	29892
4559	0	29220	32776	29856
4560	0	29272	32761	29824
4561	0	29284	32772	29760
4562	0	29288	32764	29720
4563	0	29280	32764	29724
4564	0	29332	32748	29700
4565	0	29340	32740	29692
4566	0	29336	32732	29662
4567	0	29380	32748	29656
4568	0	29296	32768	29676
4569	0	29244	32776	29716
4570	0	29232	32785	29724
4571	0	29312	32796	29704
4572	0	29364	32788	29680
4573	0	29392	32804	29617
4574	0	29324	32820	29608
4575	0	29344	32808	29609
4576	0	29428	32797	29600
4577	0	29404	32814	29604
4578	0	29450	32812	29608
4579	0	29436	32796	29598
4580	0	29476	32805	29608
4581	0	29576	32788	29620
4582	0	29640	32796	29592
4583	0	29564	32792	29584
4584	0	29448	32796	29613
4585	0	29426	32804	29648
4586	0	29520	32796	29660
4587	0	29548	32788	29644
4588	0	29500	32796	29644
4589	0	29548	32796	29640
4590	0	29544	32784	29609
4591	0	29584	32776	29596
4592	0	29624	32760	29582
4593	0	29684	32764	29576
4594	0	29628	32780	29572
4595	0	29708	32764	29584
4596	0	29733	32769	29592
4597	0	29752	32772	29588
4598	0	29748	32760	29588
4599	0	29630	32788	29588
4600	0	29568	32792	29636
4601	0	29560	32776	29653
4602	0	29520	32784	29636
4603	0	29560	32765	29592
4604	0	29628	32756	29518
4605	0	29660	32740	29447
4606	0	29628	32760	29397
4607	0	29648	32752	29364
4608	0	29676	32752	29344
4609	0	29672	32773	29328
4610	0	29704	32768	29316
4611	0	29724	32776	29312
4612	0	29680	32800	29288
4613	0	29640	32812	29288
4614	0	29596	32828	29288
4615	0	29440	32888	29305
4616	0	29312	32904	29308
4617	0	29284	32896	29314
4618	0	29320	32888	29276
4619	0	29441	32853	29208
4620	0	29600	32829	29088
4621	0	29704	32820	28988
4622	0	29752	32808	28936
4623	0	29768	32812	28944
4624	0	29740	32832	28956
4625	0	29708	32832	28996
4626	0	29684	32840	29064
4627	0	29604	32832	29120
4628	0	29504	32852	29180
4629	0	29376	32846	29249
4630	0	29260	32840	29292
4631	0	29244	32832	29316
4632	0	29340	32812	29276
4633	0	29344	32800	29220
4634	0	29348	32788	29170
4635	0	29412	32760	29160
4636	0	29488	32764	29156
4637	0	29544	32764	29136
4638	0	29460	32780	29164
4639	0	29508	32729	29224
4640	0	29620	32712	29260
4641	0	29524	32728	29244
4642	0	29504	32700	29280
4643	0	29648	32672	29313
4644	0	29712	32685	29280
4645	0	29656	32668	29272
4646	0	29628	32656	29302
4647	0	29584	32672	29344
4648	0	29568	32676	29376
4649	0	29692	32652	29364
4650	0	29760	32648	29312
4651	0	29764	32652	29272
4652	0	29852	32640	29268
4653	0	29916	32660	29256
4654	0	29848	32684	29244
4655	0	29780	32676	29280
4656	0	29832	32652	29304
4657	0	29860	32670	29328
4658	0	29776	32696	29292
4659	0	29704	32696	29320
4660	0	29668	32704	29352
4661	0	29680	32724	29320
4662	0	29776	32684	29276
4663	0	29952	32656	29248
4664	0	30016	32672	29164
4665	0	29884	32720	29096
4666	0	29836	32706	29144
4667	0	29916	32704	29212
4668	0	29924	32720	29164
4669	0	29916	32732	29120
4670	0	29904	32740	29108
4671	0	29888	32750	29104
4672	0	29872	32760	29121
4673	0	29972	32740	29129
4674	0	29984	32744	29088
4675	0	29980	32765	29024
4676	0	30060	32744	29001
4677	0	30124	32752	28992
4678	0	30152	32736	28957
4679	0	30189	32748	28958
4680	0	30160	32764	28956
4681	0	30144	32769	28961
4682	0	30192	32748	29012
4683	0	30240	32736	29028
4684	0	30172	32769	29000
4685	0	30112	32772	28988
4686	0	30160	32769	29000
4687	0	30152	32772	28972
4688	0	30192	32760	28964
4689	0	30172	32764	28949
4690	0	30176	32756	28954
4691	0	30156	32788	28964
4692	0	30160	32788	28960
4693	0	30168	32784	28956
4694	0	30216	32792	28932
4695	0	30332	32780	28868
4696	0	30336	32776	28832
4697	0	30336	32784	28836
4698	0	30348	32784	28864
4699	0	30280	32809	28876
4700	0	30232	32804	28929
4701	0	30248	32788	28936
4702	0	30208	32788	28932
4703	0	30104	32822	28932
4704	0	30136	32808	28944
4705	0	30152	32784	28924
4706	0	30216	32776	28900
4707	0	30192	32764	28864
4708	0	30200	32756	28880
4709	0	30248	32728	28864
4710	0	30332	32708	28852
4711	0	30384	32708	28860
4712	0	30376	32704	28824
4713	0	30392	32696	28828
4714	0	30424	32704	28836
4715	0	30404	32720	28841
4716	0	30288	32720	28865
4717	0	30272	32710	28892
4718	0	30288	32710	28900
4719	0	30272	32704	28880
4720	0	30280	32680	28862
4721	0	30304	32672	28845
4722	0	30248	32672	28824
4723	0	30280	32636	28828
4724	0	30328	32616	28844
4725	0	30352	32632	28848
4726	0	30308	32645	28844
4727	0	30264	32644	28884
4728	0	30296	32632	28932
4729	0	30308	32644	28916
4730	0	30300	32620	28908
4731	0	30384	32592	28908
4732	0	30504	32610	28876
4733	0	30536	32700	28836
4734	0	30576	32688	28800
4735	0	30604	32576	28804
4736	0	30608	32520	28816
4737	0	30580	32512	28824
4738	0	30592	32540	28840
4739	0	30560	32592	28836
4740	0	30552	32617	28825
4741	0	30557	32636	28832
4742	0	30649	32628	28800
4743	0	30544	32660	28768
4744	0	30440	32688	28777
4745	0	30465	32680	28800
4746	0	30488	32696	28792
4747	0	30476	32672	28768
4748	0	30612	32672	28745
4749	0	30648	32676	28701
4750	0	30600	32672	28665
4751	0	30616	32656	28676
4752	0	30668	32652	28697
4753	0	30677	32648	28672
4754	0	30660	32648	28640
4755	0	30744	32644	28620
4756	0	30788	32661	28608
4757	0	30712	32684	28612
4758	0	30744	32681	28636
4759	0	30701	32700	28644
4760	0	30640	32712	28668
4761	0	30724	32684	28684
4762	0	30764	32704	28670
4763	0	30768	32716	28660
4764	0	30708	32720	28656
4765	0	30704	32700	28660
4766	0	30768	32709	28668
4767	0	30776	32700	28676
4768	0	30752	32713	28648
4769	0	30716	32684	28672
4770	0	30672	32704	28688
4771	0	30784	32660	28705
4772	0	30812	32696	28697
4773	0	30844	32704	28672
4774	0	30888	32696	28664
4775	0	30972	32688	28648
4776	0	30952	32680	28632
4777	0	30996	32688	28604
4778	0	31064	32668	28576
4779	0	31108	32680	28548
4780	0	31076	32672	28516
4781	0	31116	32656	28488
4782	0	31096	32672	28464
4783	0	31020	32676	28468
4784	0	31020	32676	28464
4785	0	31132	32671	28428
4786	0	31132	32688	28396
4787	0	31104	32688	28360
4788	0	31136	32712	28352
4789	0	31064	32701	28368
4790	0	31068	32696	28380
4791	0	31080	32708	28368
4792	0	31000	32716	28344
4793	0	30877	32720	28352
4794	0	30984	32684	28366
4795	0	31080	32672	28352
4796	0	31112	32692	28280
4797	0	31048	32688	28265
4798	0	31072	32668	28280
4799	0	31076	32664	28280
4800	0	31008	32688	28261
4801	0	31080	32668	28265
4802	0	31065	32684	28256
4803	0	31048	32680	28236
4804	0	31128	32684	28229
4805	0	31144	32656	28220
4806	0	31180	32652	28208
4807	0	31196	32680	28184
4808	0	31044	32672	28172
4809	0	30920	32648	28212
4810	0	30976	32632	28240
4811	0	31069	32624	28220
4812	0	31136	32616	28168
4813	0	31160	32596	28145
4814	0	31153	32608	28148
4815	0	31120	32580	28144
4816	0	31128	32568	28177
4817	0	31164	32568	28172
4818	0	31264	32576	28164
4819	0	31208	32576	28152
4820	0	31264	32568	28184
