# OpenSignals Text File Format
# {"00:07:80:4D:2E:5B":{"sensor":["gACCx","gACCy","gACCz"],"device name":"00:07:80:4D:2E:5B","column":["nSeq","DI","gACCx","gACCy","gACCz"],"sync interval":2,"time":"05:32:04","comments":"","keywords":"","device connection":"BTH00:07:80:4D:2E:5B","channels":[1,2,3],"date":"2024-10-17","mode":0,"digital IO":[0,1],"firmware version":775,"device":"biosignalsplux","position":0,"sampling rate":1000,"label":["gACCx","gACCy","gACCz"],"resolution":[16,16,16],"special":[{},{},{}],"sleeve color":["UNKNOWN","UNKNOWN","UNKNOWN"]}}
# EndOfHeader
0	0	32860	32796	28080
1	0	32840	32798	28080
2	0	32832	32797	28084
3	0	32832	32792	28108
4	0	32840	32788	28120
5	0	32832	32800	28132
6	0	32832	32804	28128
7	0	32832	32808	28133
8	0	32836	32808	28140
9	0	32824	32812	28144
10	0	32820	32828	28140
11	0	32804	32832	28136
12	0	32788	32848	28116
13	0	32768	32840	28128
14	0	32756	32844	28120
15	0	32748	32840	28124
16	0	32744	32841	28120
17	0	32736	32840	28120
18	0	32736	32852	28120
19	0	32756	32832	28128
20	0	32756	32828	28120
21	0	32752	32840	28133
22	0	32748	32836	28133
23	0	32744	32844	28144
24	0	32744	32840	28148
25	0	32740	32852	28153
26	0	32752	32836	28152
27	0	32753	32836	28160
28	0	32764	32821	28172
29	0	32765	32824	28176
30	0	32764	32828	28184
31	0	32764	32824	28180
32	0	32768	32816	28168
33	0	32776	32816	28160
34	0	32772	32812	28152
35	0	32780	32796	28141
36	0	32780	32812	28125
37	0	32772	32804	28128
38	0	32768	32804	28130
39	0	32788	32800	28136
40	0	32776	32800	28128
41	0	32792	32780	28128
42	0	32808	32776	28110
43	0	32800	32792	28112
44	0	32808	32796	28113
45	0	32808	32800	28128
46	0	32816	32788	28120
47	0	32800	32808	28124
48	0	32824	32796	28117
49	0	32824	32800	28132
50	0	32816	32816	28120
51	0	32804	32812	28124
52	0	32816	32797	28108
53	0	32816	32788	28124
54	0	32812	32780	28116
55	0	32820	32799	28124
56	0	32808	32792	28132
57	0	32808	32792	28132
58	0	32812	32792	28120
59	0	32800	32792	28120
60	0	32824	32780	28128
61	0	32832	32792	28153
62	0	32832	32800	28153
63	0	32836	32792	28156
64	0	32836	32788	28156
65	0	32836	32784	28152
66	0	32832	32788	28144
67	0	32816	32800	28144
68	0	32824	32804	28129
69	0	32812	32808	28140
70	0	32801	32816	28140
71	0	32796	32816	28136
72	0	32800	32816	28128
73	0	32812	32804	28120
74	0	32804	32800	28108
75	0	32812	32808	28112
76	0	32816	32800	28116
77	0	32832	32776	28100
78	0	32844	32774	28120
79	0	32856	32764	28140
80	0	32860	32772	28148
81	0	32848	32768	28156
82	0	32868	32764	28140
83	0	32880	32768	28152
84	0	32888	32760	28141
85	0	32872	32756	28156
86	0	32896	32756	28156
87	0	32896	32748	28164
88	0	32896	32744	28152
89	0	32892	32748	28160
90	0	32872	32748	28164
91	0	32876	32756	28148
92	0	32880	32748	28149
93	0	32884	32748	28124
94	0	32888	32736	28100
95	0	32912	32740	28106
96	0	32928	32732	28108
97	0	32928	32720	28092
98	0	32944	32728	28088
99	0	32944	32740	28076
100	0	32940	32748	28072
101	0	32936	32760	28062
102	0	32924	32760	28049
103	0	32940	32744	28056
104	0	32924	32756	28048
105	0	32932	32760	28052
106	0	32924	32756	28037
107	0	32928	32748	28040
108	0	32908	32752	28060
109	0	32900	32756	28069
110	0	32884	32756	28072
111	0	32904	32748	28073
112	0	32888	32768	28096
113	0	32892	32760	28096
114	0	32888	32768	28101
115	0	32896	32764	28092
116	0	32888	32768	28088
117	0	32904	32761	28104
118	0	32912	32748	28116
119	0	32912	32752	28121
120	0	32908	32768	28125
121	0	32904	32760	28116
122	0	32908	32753	28124
123	0	32904	32760	28120
124	0	32900	32761	28104
125	0	32888	32760	28116
126	0	32872	32756	28092
127	0	32884	32764	28104
128	0	32872	32756	28116
129	0	32888	32740	28124
130	0	32872	32752	28128
131	0	32872	32768	28128
132	0	32872	32756	28144
133	0	32872	32760	28160
134	0	32872	32760	28168
135	0	32876	32760	28160
136	0	32896	32749	28144
137	0	32904	32744	28161
138	0	32896	32741	28164
139	0	32900	32744	28176
140	0	32904	32744	28193
141	0	32916	32740	28196
142	0	32924	32752	28204
143	0	32920	32748	28192
144	0	32928	32741	28184
145	0	32924	32740	28184
146	0	32924	32740	28188
147	0	32920	32740	28184
148	0	32916	32740	28184
149	0	32916	32744	28156
150	0	32928	32752	28172
151	0	32936	32736	28180
152	0	32940	32736	28184
153	0	32944	32752	28188
154	0	32944	32760	28196
155	0	32936	32748	28221
156	0	32940	32752	28228
157	0	32952	32749	28236
158	0	32936	32752	28224
159	0	32928	32760	28224
160	0	32936	32752	28216
161	0	32932	32748	28228
162	0	32928	32748	28237
163	0	32936	32744	28228
164	0	32932	32749	28244
165	0	32936	32736	28237
166	0	32948	32741	28236
167	0	32960	32737	28212
168	0	32984	32736	28200
169	0	32992	32732	28184
170	0	32992	32736	28152
171	0	33000	32744	28144
172	0	33016	32736	28152
173	0	33008	32740	28132
174	0	33008	32732	28109
175	0	33008	32744	28109
176	0	32996	32736	28100
177	0	33000	32722	28108
178	0	32984	32740	28116
179	0	32984	32732	28140
180	0	32996	32736	28140
181	0	33000	32736	28148
182	0	32992	32732	28164
183	0	33016	32744	28172
184	0	33008	32748	28168
185	0	32996	32736	28180
186	0	32992	32744	28192
187	0	32992	32756	28196
188	0	32996	32744	28196
189	0	32996	32740	28204
190	0	32988	32744	28196
191	0	32988	32740	28184
192	0	32996	32742	28184
193	0	33000	32736	28176
194	0	33008	32736	28169
195	0	33012	32740	28149
196	0	33008	32736	28140
197	0	33016	32733	28156
198	0	33024	32724	28152
199	0	33016	32728	28136
200	0	33020	32720	28148
201	0	33017	32732	28140
202	0	33028	32736	28133
203	0	33036	32728	28128
204	0	33032	32724	28144
205	0	33028	32745	28148
206	0	33024	32748	28176
207	0	33016	32752	28172
208	0	33008	32744	28172
209	0	33000	32736	28168
210	0	32997	32736	28168
211	0	33000	32736	28161
212	0	33016	32744	28132
213	0	33012	32752	28140
214	0	33012	32760	28124
215	0	33020	32752	28116
216	0	33028	32756	28124
217	0	33016	32760	28109
218	0	33000	32748	28108
219	0	32996	32760	28104
220	0	33000	32776	28088
221	0	33000	32772	28092
222	0	33000	32788	28100
223	0	33009	32776	28113
224	0	33008	32796	28112
225	0	33008	32788	28116
226	0	33000	32772	28104
227	0	33000	32780	28100
228	0	33000	32776	28100
229	0	32984	32788	28096
230	0	32984	32784	28092
231	0	32992	32784	28100
232	0	32990	32784	28096
233	0	33004	32784	28092
234	0	33000	32784	28092
235	0	33004	32768	28088
236	0	33004	32773	28096
237	0	33008	32772	28084
238	0	33008	32782	28080
239	0	33020	32772	28053
240	0	33016	32784	28056
241	0	33036	32772	28061
242	0	33024	32780	28061
243	0	33024	32776	28056
244	0	33032	32776	28060
245	0	33044	32782	28076
246	0	33040	32780	28068
247	0	33040	32782	28076
248	0	33024	32776	28096
249	0	33020	32784	28096
250	0	33016	32776	28096
251	0	33020	32772	28096
252	0	33008	32788	28100
253	0	33004	32790	28112
254	0	32992	32788	28108
255	0	32980	32784	28110
256	0	32988	32793	28100
257	0	32980	32792	28096
258	0	32984	32788	28084
259	0	32960	32801	28104
260	0	32960	32796	28108
261	0	32952	32796	28112
262	0	32948	32808	28108
263	0	32932	32812	28096
264	0	32936	32802	28100
265	0	32936	32796	28100
266	0	32932	32792	28092
267	0	32928	32796	28096
268	0	32916	32804	28108
269	0	32912	32792	28132
270	0	32924	32796	28120
271	0	32924	32792	28140
272	0	32920	32792	28128
273	0	32932	32788	28140
274	0	32936	32796	28112
275	0	32944	32789	28108
276	0	32936	32792	28124
277	0	32944	32796	28124
278	0	32952	32784	28116
279	0	32940	32788	28128
280	0	32944	32776	28136
281	0	32960	32788	28140
282	0	32936	32792	28145
283	0	32936	32776	28148
284	0	32940	32799	28152
285	0	32944	32800	28132
286	0	32928	32800	28148
287	0	32928	32788	28140
288	0	32936	32776	28152
289	0	32948	32788	28128
290	0	32952	32788	28132
291	0	32960	32792	28128
292	0	32956	32788	28148
293	0	32952	32784	28142
294	0	32944	32800	28140
295	0	32956	32800	28133
296	0	32944	32808	28148
297	0	32944	32798	28121
298	0	32940	32797	28132
299	0	32948	32796	28128
300	0	32936	32792	28132
301	0	32924	32808	28132
302	0	32932	32804	28128
303	0	32932	32816	28120
304	0	32936	32816	28140
305	0	32940	32820	28148
306	0	32936	32824	28140
307	0	32936	32820	28152
308	0	32948	32816	28144
309	0	32948	32824	28144
310	0	32948	32824	28144
311	0	32960	32812	28156
312	0	32964	32804	28149
313	0	32976	32808	28152
314	0	32980	32800	28140
315	0	32960	32812	28120
316	0	32976	32800	28112
317	0	32988	32793	28112
318	0	32980	32788	28116
319	0	32976	32800	28126
320	0	32984	32796	28129
321	0	32968	32826	28136
322	0	32968	32816	28148
323	0	32976	32800	28152
324	0	32976	32820	28152
325	0	32984	32816	28156
326	0	32976	32804	28144
327	0	32972	32809	28141
328	0	32988	32805	28152
329	0	32984	32796	28148
330	0	32972	32798	28152
331	0	32964	32800	28152
332	0	32960	32798	28148
333	0	32976	32800	28156
334	0	32980	32808	28165
335	0	32980	32816	28156
336	0	32976	32820	28172
337	0	32972	32820	28172
338	0	32976	32824	28176
339	0	32980	32808	28160
340	0	32964	32812	28172
341	0	32956	32816	28168
342	0	32960	32812	28184
343	0	32960	32808	28192
344	0	32968	32808	28192
345	0	32976	32804	28184
346	0	32988	32804	28180
347	0	33000	32828	28180
348	0	32988	32820	28157
349	0	33000	32808	28148
350	0	32996	32808	28136
351	0	33000	32808	28128
352	0	32992	32813	28124
353	0	32984	32812	28108
354	0	32992	32816	28101
355	0	32988	32817	28094
356	0	32976	32830	28081
357	0	32968	32832	28084
358	0	32936	32844	28080
359	0	32936	32840	28120
360	0	32920	32840	28128
361	0	32944	32844	28132
362	0	32928	32844	28126
363	0	32936	32852	28116
364	0	32936	32848	28120
365	0	32936	32848	28121
366	0	32928	32856	28120
367	0	32932	32845	28116
368	0	32932	32832	28120
369	0	32932	32836	28112
370	0	32924	32836	28124
371	0	32920	32846	28121
372	0	32928	32860	28120
373	0	32909	32856	28112
374	0	32904	32872	28108
375	0	32896	32865	28104
376	0	32888	32856	28108
377	0	32888	32864	28110
378	0	32884	32860	28108
379	0	32888	32848	28116
380	0	32900	32856	28104
381	0	32900	32844	28128
382	0	32904	32857	28140
383	0	32904	32872	28144
384	0	32928	32856	28156
385	0	32928	32852	28136
386	0	32944	32864	28148
387	0	32936	32852	28156
388	0	32936	32860	28164
389	0	32936	32852	28168
390	0	32944	32846	28168
391	0	32960	32840	28152
392	0	32976	32824	28152
393	0	32992	32812	28156
394	0	32976	32828	28160
395	0	32988	32824	28180
396	0	32985	32816	28200
397	0	32988	32816	28193
398	0	32992	32808	28188
399	0	32992	32804	28216
400	0	32996	32828	28217
401	0	32992	32824	28224
402	0	32980	32828	28228
403	0	32980	32825	28244
404	0	32984	32844	28256
405	0	32980	32832	28252
406	0	32980	32824	28237
407	0	32988	32836	28212
408	0	32984	32828	28212
409	0	32992	32821	28188
410	0	33000	32820	28192
411	0	33012	32816	28184
412	0	33016	32816	28156
413	0	33012	32824	28140
414	0	33028	32824	28124
415	0	33040	32828	28104
416	0	33036	32836	28108
417	0	33024	32840	28088
418	0	33020	32848	28084
419	0	33016	32856	28072
420	0	33008	32840	28084
421	0	33012	32836	28080
422	0	33016	32829	28092
423	0	33016	32828	28088
424	0	33020	32816	28096
425	0	33016	32828	28116
426	0	33024	32840	28125
427	0	33016	32840	28112
428	0	33016	32840	28120
429	0	33008	32840	28108
430	0	33024	32832	28112
431	0	33028	32829	28104
432	0	33028	32828	28120
433	0	33028	32828	28104
434	0	33020	32828	28112
435	0	33032	32824	28106
436	0	33024	32836	28116
437	0	33028	32836	28124
438	0	33052	32836	28136
439	0	33040	32836	28108
440	0	33044	32836	28104
441	0	33028	32840	28100
442	0	33040	32828	28096
443	0	33060	32828	28088
444	0	33072	32825	28088
445	0	33064	32820	28080
446	0	33056	32828	28084
447	0	33060	32816	28060
448	0	33040	32828	28068
449	0	33032	32816	28056
450	0	33036	32816	28038
451	0	33044	32820	28036
452	0	33032	32856	28020
453	0	33032	32849	28000
454	0	33024	32844	27988
455	0	33020	32860	27996
456	0	33000	32872	28004
457	0	33004	32860	28016
458	0	32996	32856	28028
459	0	32992	32860	28044
460	0	32992	32864	28048
461	0	33008	32856	28048
462	0	33008	32856	28048
463	0	33004	32864	28042
464	0	33008	32868	28032
465	0	33012	32868	28072
466	0	33000	32876	28065
467	0	32992	32884	28073
468	0	32984	32892	28064
469	0	32984	32896	28064
470	0	32977	32892	28066
471	0	32968	32892	28069
472	0	32968	32872	28092
473	0	32972	32876	28112
474	0	32952	32876	28120
475	0	32956	32876	28116
476	0	32960	32872	28136
477	0	32972	32864	28143
478	0	32976	32864	28140
479	0	32992	32864	28145
480	0	33008	32844	28152
481	0	33016	32836	28172
482	0	33016	32844	28168
483	0	33024	32850	28157
484	0	33024	32840	28164
485	0	33040	32832	28164
486	0	33044	32828	28160
487	0	33052	32820	28172
488	0	33060	32812	28172
489	0	33064	32804	28176
490	0	33076	32799	28184
491	0	33080	32792	28184
492	0	33072	32797	28189
493	0	33080	32788	28212
494	0	33080	32796	28220
495	0	33088	32793	28236
496	0	33088	32788	28252
497	0	33080	32812	28248
498	0	33088	32800	28260
499	0	33084	32792	28256
500	0	33072	32800	28268
501	0	33080	32796	28249
502	0	33064	32805	28257
503	0	33052	32808	28276
504	0	33048	32804	28284
505	0	33044	32800	28280
506	0	33020	32808	28284
507	0	33016	32812	28284
508	0	33008	32820	28277
509	0	33008	32824	28264
510	0	33012	32828	28256
511	0	33024	32816	28260
512	0	33012	32817	28264
513	0	33024	32816	28286
514	0	33016	32833	28256
515	0	33028	32816	28249
516	0	33032	32816	28240
517	0	33040	32820	28240
518	0	33040	32820	28237
519	0	33024	32812	28240
520	0	33032	32808	28216
521	0	33032	32816	28224
522	0	33048	32816	28228
523	0	33056	32820	28224
524	0	33060	32808	28204
525	0	33072	32808	28208
526	0	33080	32808	28224
527	0	33064	32808	28232
528	0	33068	32804	28216
529	0	33068	32804	28224
530	0	33072	32808	28232
531	0	33081	32804	28248
532	0	33084	32805	28248
533	0	33096	32800	28248
534	0	33088	32798	28268
535	0	33092	32808	28256
536	0	33084	32800	28264
537	0	33076	32796	28270
538	0	33088	32812	28256
539	0	33088	32804	28248
540	0	33088	32808	28228
541	0	33108	32780	28232
542	0	33128	32792	28232
543	0	33144	32784	28224
544	0	33152	32792	28216
545	0	33152	32805	28221
546	0	33172	32792	28225
547	0	33160	32804	28204
548	0	33152	32808	28184
549	0	33140	32820	28156
550	0	33152	32813	28129
551	0	33144	32828	28124
552	0	33144	32828	28116
553	0	33128	32824	28120
554	0	33124	32836	28124
555	0	33128	32840	28112
556	0	33116	32832	28084
557	0	33116	32832	28068
558	0	33104	32844	28064
559	0	33112	32848	28068
560	0	33108	32844	28053
561	0	33120	32844	28088
562	0	33124	32840	28084
563	0	33128	32832	28084
564	0	33136	32844	28076
565	0	33136	32840	28088
566	0	33136	32848	28109
567	0	33144	32836	28092
568	0	33136	32844	28098
569	0	33132	32848	28096
570	0	33124	32856	28106
571	0	33124	32844	28116
572	0	33136	32832	28104
573	0	33132	32832	28096
574	0	33140	32840	28072
575	0	33128	32832	28062
576	0	33128	32840	28056
577	0	33132	32848	28052
578	0	33128	32856	28032
579	0	33136	32840	28032
580	0	33136	32844	28028
581	0	33145	32840	28020
582	0	33149	32840	28001
583	0	33144	32837	28004
584	0	33144	32840	28010
585	0	33152	32848	28036
586	0	33148	32844	28029
587	0	33132	32860	28024
588	0	33124	32856	28040
589	0	33128	32856	28040
590	0	33128	32864	28037
591	0	33112	32868	28024
592	0	33096	32880	28052
593	0	33092	32872	28056
594	0	33088	32880	28060
595	0	33088	32868	28068
596	0	33076	32864	28084
597	0	33088	32864	28085
598	0	33080	32872	28080
599	0	33072	32862	28088
600	0	33080	32888	28104
601	0	33060	32896	28108
602	0	33076	32884	28124
603	0	33088	32872	28112
604	0	33080	32868	28116
605	0	33088	32872	28129
606	0	33092	32860	28116
607	0	33092	32853	28120
608	0	33080	32864	28120
609	0	33076	32864	28112
610	0	33060	32862	28119
611	0	33052	32868	28132
612	0	33052	32872	28140
613	0	33040	32892	28136
614	0	33032	32880	28128
615	0	33036	32892	28140
616	0	33024	32884	28144
617	0	33032	32892	28140
618	0	33016	32894	28150
619	0	33032	32888	28148
620	0	33028	32896	28160
621	0	33016	32888	28152
622	0	33024	32876	28172
623	0	33016	32892	28176
624	0	33008	32896	28188
625	0	33016	32884	28188
626	0	33022	32876	28200
627	0	33032	32880	28197
628	0	33028	32876	28200
629	0	33032	32884	28196
630	0	33052	32872	28188
631	0	33040	32868	28185
632	0	33048	32860	28174
633	0	33068	32860	28152
634	0	33076	32856	28161
635	0	33084	32872	28156
636	0	33080	32868	28148
637	0	33088	32860	28145
638	0	33092	32861	28136
639	0	33092	32864	28153
640	0	33104	32856	28152
641	0	33112	32848	28136
642	0	33120	32848	28134
643	0	33124	32852	28136
644	0	33128	32856	28149
645	0	33124	32868	28152
646	0	33132	32868	28140
647	0	33132	32876	28148
648	0	33128	32885	28140
649	0	33116	32884	28132
650	0	33100	32892	28140
651	0	33088	32892	28140
652	0	33084	32904	28125
653	0	33080	32920	28096
654	0	33080	32928	28100
655	0	33088	32917	28104
656	0	33088	32916	28100
657	0	33092	32928	28092
658	0	33108	32928	28076
659	0	33104	32944	28068
660	0	33096	32940	28060
661	0	33080	32956	28064
662	0	33076	32960	28064
663	0	33072	32960	28084
664	0	33060	32956	28080
665	0	33048	32960	28092
666	0	33052	32972	28100
667	0	33044	32972	28108
668	0	33048	32976	28125
669	0	33028	32988	28141
670	0	33032	32984	28128
671	0	33040	32968	28120
672	0	33040	32984	28136
673	0	33024	32996	28132
674	0	33024	33012	28124
675	0	33028	33004	28124
676	0	33024	32996	28140
677	0	33016	32992	28116
678	0	33024	32984	28100
679	0	33016	33012	28096
680	0	33024	32984	28096
681	0	33033	32968	28084
682	0	33040	32973	28060
683	0	33048	32972	28040
684	0	33064	32968	28034
685	0	33072	32958	28028
686	0	33076	32964	28036
687	0	33080	32977	28037
688	0	33080	32964	28040
689	0	33064	32968	28040
690	0	33072	32968	28049
691	0	33072	32964	28032
692	0	33053	32964	28048
693	0	33064	32964	28064
694	0	33068	32968	28048
695	0	33061	32972	28028
696	0	33056	32973	28020
697	0	33048	32972	28028
698	0	33052	32976	28049
699	0	33052	32972	28048
700	0	33036	32964	28061
701	0	33028	32960	28084
702	0	33032	32960	28093
703	0	33024	32952	28092
704	0	33008	32964	28132
705	0	33016	32960	28108
706	0	33024	32956	28097
707	0	33024	32968	28124
708	0	33024	32964	28132
709	0	33040	32960	28164
710	0	33044	32945	28168
711	0	33056	32948	28188
712	0	33080	32924	28185
713	0	33080	32924	28168
714	0	33076	32932	28172
715	0	33080	32920	28184
716	0	33081	32920	28212
717	0	33092	32924	28217
718	0	33092	32904	28204
719	0	33108	32912	28216
720	0	33088	32900	28224
721	0	33104	32908	28224
722	0	33116	32904	28240
723	0	33124	32900	28248
724	0	33140	32892	28268
725	0	33151	32884	28260
726	0	33160	32896	28271
727	0	33168	32880	28276
728	0	33160	32864	28284
729	0	33176	32864	28289
730	0	33160	32872	28289
731	0	33172	32868	28268
732	0	33184	32864	28264
733	0	33200	32852	28274
734	0	33216	32848	28260
735	0	33216	32860	28276
736	0	33200	32864	28272
737	0	33216	32848	28272
738	0	33216	32860	28273
739	0	33212	32864	28284
740	0	33208	32852	28276
741	0	33216	32860	28287
742	0	33216	32868	28264
743	0	33220	32852	28280
744	0	33216	32860	28276
745	0	33220	32864	28292
746	0	33216	32868	28284
747	0	33224	32857	28280
748	0	33228	32856	28288
749	0	33228	32861	28276
750	0	33224	32872	28292
751	0	33224	32877	28308
752	0	33232	32880	28296
753	0	33224	32878	28276
754	0	33216	32880	28252
755	0	33216	32900	28236
756	0	33216	32900	28236
757	0	33208	32900	28216
758	0	33208	32909	28188
759	0	33208	32912	28180
760	0	33224	32919	28180
761	0	33212	32920	28168
762	0	33208	32916	28172
763	0	33208	32924	28164
764	0	33208	32928	28168
765	0	33224	32928	28152
766	0	33228	32924	28153
767	0	33228	32916	28157
768	0	33232	32928	28156
769	0	33232	32916	28156
770	0	33232	32908	28157
771	0	33220	32920	28168
772	0	33204	32904	28172
773	0	33216	32880	28168
774	0	33220	32888	28157
775	0	33216	32888	28164
776	0	33232	32888	28152
777	0	33240	32896	28145
778	0	33256	32904	28132
779	0	33256	32916	28108
780	0	33256	32912	28130
781	0	33264	32904	28136
782	0	33264	32917	28120
783	0	33276	32912	28108
784	0	33272	32904	28097
785	0	33272	32908	28096
786	0	33261	32904	28100
787	0	33260	32906	28092
788	0	33248	32892	28084
789	0	33264	32888	28088
790	0	33264	32885	28088
791	0	33260	32888	28086
792	0	33256	32888	28081
793	0	33248	32896	28080
794	0	33244	32892	28072
795	0	33232	32898	28077
796	0	33228	32904	28092
797	0	33224	32912	28072
798	0	33212	32932	28056
799	0	33220	32936	28040
800	0	33232	32936	28044
801	0	33216	32924	28040
802	0	33216	32940	28064
803	0	33224	32940	28064
804	0	33240	32920	28052
805	0	33236	32928	28040
806	0	33224	32928	28057
807	0	33240	32924	28057
808	0	33232	32928	28063
809	0	33224	32936	28068
810	0	33236	32936	28076
811	0	33234	32940	28088
812	0	33232	32944	28076
813	0	33216	32960	28104
814	0	33208	32964	28128
815	0	33216	32948	28128
816	0	33216	32944	28140
817	0	33224	32904	28152
818	0	33232	32912	28153
819	0	33264	32896	28157
820	0	33272	32888	28136
821	0	33272	32889	28134
822	0	33280	32872	28112
823	0	33276	32888	28100
824	0	33288	32892	28084
825	0	33293	32896	28084
826	0	33304	32904	28064
827	0	33308	32896	28060
828	0	33308	32908	28036
829	0	33304	32928	28036
830	0	33288	32936	28036
831	0	33264	32940	28040
832	0	33256	32953	28060
833	0	33244	32960	28064
834	0	33224	32958	28068
835	0	33216	32956	28088
836	0	33200	32960	28080
837	0	33192	32956	28072
838	0	33168	32960	28084
839	0	33172	32964	28084
840	0	33152	32968	28093
841	0	33152	32960	28092
842	0	33144	32952	28089
843	0	33136	32976	28100
844	0	33144	32972	28112
845	0	33156	32984	28108
846	0	33172	32968	28110
847	0	33192	32972	28116
848	0	33208	32964	28108
849	0	33224	32956	28117
850	0	33244	32940	28104
851	0	33248	32928	28088
852	0	33264	32924	28100
853	0	33300	32937	28140
854	0	33464	33004	28676
855	0	33620	33068	29344
856	0	33656	33052	29753
857	0	33600	33008	29777
858	0	33504	32964	29496
859	0	33408	32928	29136
860	0	33338	32895	28760
861	0	33292	32904	28424
862	0	33276	32896	28190
863	0	33320	32892	28088
864	0	33356	32904	28092
865	0	33376	32900	28148
866	0	33392	32904	28224
867	0	33400	32884	28268
868	0	33376	32876	28280
869	0	33364	32881	28228
870	0	33336	32872	28180
871	0	33320	32852	28120
872	0	33312	32834	28092
873	0	33320	32848	28072
874	0	33320	32872	28057
875	0	33352	32884	28060
876	0	33368	32888	28060
877	0	33392	32872	28060
878	0	33388	32864	28060
879	0	33496	32824	27872
880	0	34241	32736	26136
881	0	34484	32797	25349
882	0	34296	32869	25960
883	0	34072	32928	27136
884	0	33976	32972	28068
885	0	33988	32944	28500
886	0	33888	32957	28570
887	0	33640	32936	28441
888	0	33376	32932	28300
889	0	33116	32952	28185
890	0	32932	32952	28080
891	0	32800	32972	28000
892	0	32736	32960	27992
893	0	32756	32948	27968
894	0	32784	32940	27960
895	0	32808	32941	27961
896	0	32872	32936	27952
897	0	32960	32932	27960
898	0	33008	32936	27996
899	0	33096	32924	28001
900	0	33164	32948	28016
901	0	33208	32952	28040
902	0	33252	32940	28065
903	0	33304	32928	28116
904	0	33336	32948	28134
905	0	33380	32960	28174
906	0	33404	32968	28212
907	0	33424	32982	28232
908	0	33432	32968	28253
909	0	33448	32957	28256
910	0	33448	32972	28248
911	0	33468	32956	28256
912	0	33480	32924	28292
913	0	33472	32952	28296
914	0	33440	32964	28292
915	0	33416	32964	28292
916	0	33404	32920	28276
917	0	33364	32940	28269
918	0	33352	32956	28256
919	0	33368	32909	28269
920	0	33332	32944	28286
921	0	33316	32960	28284
922	0	33292	32953	28264
923	0	33256	32968	28248
924	0	33216	32984	28284
925	0	33216	32976	28318
926	0	33208	32980	28340
927	0	33196	32977	28325
928	0	33184	33008	28300
929	0	33184	32984	28284
930	0	33192	32988	28260
931	0	33181	32976	28248
932	0	33184	32956	28248
933	0	33208	32968	28229
934	0	33212	33000	28208
935	0	33240	32960	28192
936	0	33232	32988	28200
937	0	33216	33004	28185
938	0	33204	33030	28180
939	0	33200	33008	28172
940	0	33196	32976	28192
941	0	33204	33016	28184
942	0	33196	33016	28168
943	0	33196	32968	28172
944	0	33188	32984	28184
945	0	33192	33016	28188
946	0	33184	33028	28204
947	0	33164	32996	28224
948	0	33168	32984	28212
949	0	33156	33000	28205
950	0	33144	33028	28189
951	0	33116	33024	28188
952	0	33096	33036	28160
953	0	33080	33040	28148
954	0	33069	33028	28148
955	0	33060	33048	28136
956	0	33060	33012	28128
957	0	33056	33036	28112
958	0	33056	33040	28100
959	0	33056	33028	28100
960	0	33036	33028	28104
961	0	33032	33036	28076
962	0	33008	33044	28084
963	0	33000	33032	28096
964	0	33012	33032	28072
965	0	33020	33020	28060
966	0	33016	33032	28052
967	0	33012	33028	28036
968	0	33004	33036	28016
969	0	33009	33024	28018
970	0	33020	33016	28008
971	0	33016	33034	28026
972	0	33008	33028	28036
973	0	33016	33025	28036
974	0	33016	33032	28024
975	0	33000	33024	28024
976	0	32972	32964	28033
977	0	32940	32896	28040
978	0	32976	32952	28000
979	0	32984	32988	28012
980	0	32996	33000	28044
981	0	33008	33012	28044
982	0	33004	33024	28060
983	0	33016	33028	28080
984	0	33020	33024	28084
985	0	33021	33028	28104
986	0	33024	33029	28120
987	0	33024	33016	28124
988	0	33044	33012	28128
989	0	33056	33000	28144
990	0	33060	32992	28152
991	0	33060	32981	28152
992	0	33064	32992	28161
993	0	33072	33004	28148
994	0	33092	32992	28164
995	0	33088	32980	28172
996	0	33092	32968	28184
997	0	33092	32980	28205
998	0	33088	32964	28221
999	0	33088	32976	28224
1000	0	33072	32952	28240
1001	0	33072	32960	28260
1002	0	33072	32960	28260
1003	0	33076	32968	28252
1004	0	33092	32944	28248
1005	0	33088	32952	28252
1006	0	33088	32952	28248
1007	0	33084	32960	28244
1008	0	33080	32960	28232
1009	0	33064	32956	28208
1010	0	33060	32956	28220
1011	0	33052	32964	28204
1012	0	33040	32974	28192
1013	0	33028	32964	28184
1014	0	33032	32960	28192
1015	0	33032	32954	28156
1016	0	33024	32964	28141
1017	0	33024	32964	28144
1018	0	33036	32960	28148
1019	0	33040	32968	28132
1020	0	33028	32948	28125
1021	0	33032	32952	28133
1022	0	33032	32948	28116
1023	0	33040	32936	28112
1024	0	33036	32956	28092
1025	0	33032	32948	28120
1026	0	33040	32932	28132
1027	0	33040	32944	28084
1028	0	33032	32936	28088
1029	0	33036	32936	28113
1030	0	33056	32916	28101
1031	0	33049	32916	28064
1032	0	33040	32912	28064
1033	0	33032	32921	28064
1034	0	33032	32920	28044
1035	0	33024	32911	28024
1036	0	33016	32905	27988
1037	0	33032	32900	27996
1038	0	33032	32900	27996
1039	0	33040	32896	27996
1040	0	33036	32900	27980
1041	0	33032	32892	27984
1042	0	33024	32884	28018
1043	0	33024	32900	28025
1044	0	32992	32924	28016
1045	0	32984	32920	28032
1046	0	32980	32928	28048
1047	0	32972	32936	28060
1048	0	32968	32936	28064
1049	0	32948	32928	28076
1050	0	32952	32928	28076
1051	0	32945	32916	28092
1052	0	32956	32920	28088
1053	0	32960	32924	28104
1054	0	32972	32916	28112
1055	0	32976	32912	28112
1056	0	32976	32908	28108
1057	0	32972	32900	28113
1058	0	32980	32904	28112
1059	0	32984	32908	28112
1060	0	32968	32908	28116
1061	0	32964	32912	28132
1062	0	32968	32940	28136
1063	0	32984	32960	28152
1064	0	32972	32948	28148
1065	0	32980	32948	28164
1066	0	33008	32940	28160
1067	0	32992	32932	28132
1068	0	32984	32929	28136
1069	0	32984	32908	28144
1070	0	32988	32896	28137
1071	0	32988	32904	28148
1072	0	32984	32896	28152
1073	0	32992	32893	28144
1074	0	32980	32884	28128
1075	0	32968	32888	28112
1076	0	32968	32892	28106
1077	0	32964	32892	28096
1078	0	32956	32876	28077
1079	0	32960	32896	28068
1080	0	32944	32916	28060
1081	0	32936	32912	28052
1082	0	32932	32926	28044
1083	0	32928	32936	28029
1084	0	32932	32948	28012
1085	0	32960	32944	27976
1086	0	32960	32952	27964
1087	0	32956	32944	27968
1088	0	32960	32928	27976
1089	0	32952	32936	27968
1090	0	32948	32936	27945
1091	0	32944	32932	27942
1092	0	32936	32936	27949
1093	0	32952	32920	27949
1094	0	32960	32916	27952
1095	0	32976	32900	27952
1096	0	33008	32844	27992
1097	0	33012	32812	28028
1098	0	32992	32792	28053
1099	0	32968	32792	28064
1100	0	32976	32813	28057
1101	0	32956	32868	28048
1102	0	32952	32916	28033
1103	0	32952	32944	28016
1104	0	32936	32948	28016
1105	0	32904	32948	28012
1106	0	32872	32928	28021
1107	0	32872	32912	28008
1108	0	32872	32889	28004
1109	0	32888	32844	28017
1110	0	32892	32809	28013
1111	0	32888	32800	28016
1112	0	32880	32773	28052
1113	0	32884	32756	28060
1114	0	32881	32744	28084
1115	0	32892	32716	28108
1116	0	32880	32720	28116
1117	0	32884	32712	28112
1118	0	32896	32704	28124
1119	0	32912	32696	28120
1120	0	32924	32692	28128
1121	0	32944	32672	28140
1122	0	32944	32672	28136
1123	0	32956	32680	28136
1124	0	32960	32670	28140
1125	0	32960	32676	28148
1126	0	32952	32682	28132
1127	0	32952	32681	28136
1128	0	32952	32688	28164
1129	0	32960	32688	28192
1130	0	32972	32692	28176
1131	0	32960	32716	28192
1132	0	32948	32712	28212
1133	0	32952	32708	28216
1134	0	32960	32716	28232
1135	0	32960	32716	28240
1136	0	32952	32724	28252
1137	0	32960	32724	28256
1138	0	32960	32745	28236
1139	0	32960	32752	28236
1140	0	32988	32748	28253
1141	0	32985	32744	28237
1142	0	33000	32760	28218
1143	0	33004	32776	28216
1144	0	32992	32772	28224
1145	0	32992	32788	28220
1146	0	33008	32800	28212
1147	0	33008	32812	28180
1148	0	33016	32824	28172
1149	0	33024	32828	28164
1150	0	33024	32854	28148
1151	0	33052	32852	28148
1152	0	33040	32872	28132
1153	0	33052	32880	28156
1154	0	33060	32880	28144
1155	0	33072	32884	28128
1156	0	33088	32880	28136
1157	0	33088	32888	28120
1158	0	33108	32900	28148
1159	0	33112	32897	28156
1160	0	33108	32876	28140
1161	0	33120	32860	28144
1162	0	33128	32820	28140
1163	0	33124	32804	28136
1164	0	33120	32780	28126
1165	0	33112	32765	28128
1166	0	33104	32736	28136
1167	0	33108	32752	28129
1168	0	33112	32740	28096
1169	0	33112	32720	28072
1170	0	33120	32653	28116
1171	0	33128	32653	28152
1172	0	33152	32656	28174
1173	0	33140	32664	28154
1174	0	33136	32676	28144
1175	0	33108	32696	28132
1176	0	33064	32788	28116
1177	0	32984	32940	28064
1178	0	32964	32904	27988
1179	0	33000	32820	27998
1180	0	32992	32824	28020
1181	0	32960	32804	28028
1182	0	32952	32768	28040
1183	0	32936	32772	28028
1184	0	32964	32788	28028
1185	0	32964	32812	28052
1186	0	32952	32808	28060
1187	0	32960	32804	28053
1188	0	32944	32808	28036
1189	0	32928	32800	28020
1190	0	32920	32780	28016
1191	0	32924	32740	28020
1192	0	32940	32744	28028
1193	0	32924	32744	28016
1194	0	32912	32742	27984
1195	0	32904	32753	27984
1196	0	32900	32744	27993
1197	0	32880	32720	27988
1198	0	32876	32696	28008
1199	0	32844	32672	28028
1200	0	32856	32644	28044
1201	0	32876	32612	28045
1202	0	32912	32620	28021
1203	0	32913	32616	28012
1204	0	32920	32648	28036
1205	0	32888	32664	28036
1206	0	32872	32672	28048
1207	0	32864	32664	28068
1208	0	32872	32624	28070
1209	0	32868	32608	28084
1210	0	32876	32620	28068
1211	0	32884	32644	28085
1212	0	32894	32664	28092
1213	0	32888	32672	28104
1214	0	32888	32654	28148
1215	0	32864	32640	28180
1216	0	32848	32648	28160
1217	0	32856	32636	28176
1218	0	32856	32632	28196
1219	0	32862	32640	28208
1220	0	32864	32660	28200
1221	0	32856	32664	28196
1222	0	32848	32660	28180
1223	0	32856	32644	28188
1224	0	32852	32648	28206
1225	0	32852	32652	28232
1226	0	32840	32684	28248
1227	0	32840	32688	28240
1228	0	32824	32688	28224
1229	0	32800	32688	28218
1230	0	32824	32668	28208
1231	0	32797	32689	28196
1232	0	32796	32688	28216
1233	0	32796	32676	28216
1234	0	32800	32668	28200
1235	0	32792	32672	28206
1236	0	32772	32668	28188
1237	0	32768	32668	28164
1238	0	32778	32668	28156
1239	0	32762	32685	28156
1240	0	32752	32680	28180
1241	0	32736	32680	28180
1242	0	32728	32676	28172
1243	0	32720	32676	28164
1244	0	32720	32664	28152
1245	0	32716	32652	28136
1246	0	32712	32648	28132
1247	0	32708	32656	28140
1248	0	32716	32644	28144
1249	0	32704	32660	28153
1250	0	32704	32660	28144
1251	0	32692	32640	28140
1252	0	32708	32633	28116
1253	0	32704	32644	28120
1254	0	32696	32644	28108
1255	0	32704	32636	28104
1256	0	32697	32644	28096
1257	0	32704	32644	28096
1258	0	32729	32652	28101
1259	0	32720	32668	28088
1260	0	32720	32660	28104
1261	0	32740	32649	28108
1262	0	32744	32656	28104
1263	0	32756	32640	28094
1264	0	32768	32648	28100
1265	0	32784	32632	28112
1266	0	32792	32620	28125
1267	0	32788	32636	28112
1268	0	32808	32644	28116
1269	0	32804	32661	28102
1270	0	32792	32664	28112
1271	0	32780	32660	28112
1272	0	32784	32668	28096
1273	0	32776	32664	28088
1274	0	32772	32664	28088
1275	0	32784	32660	28100
1276	0	32776	32669	28081
1277	0	32772	32649	28072
1278	0	32772	32640	28064
1279	0	32772	32636	28048
1280	0	32768	32640	28072
1281	0	32760	32641	28069
1282	0	32768	32632	28088
1283	0	32768	32640	28092
1284	0	32768	32656	28080
1285	0	32784	32664	28064
1286	0	32764	32672	28052
1287	0	32772	32669	28060
1288	0	32780	32678	28060
1289	0	32780	32680	28076
1290	0	32804	32673	28089
1291	0	32808	32664	28098
1292	0	32808	32669	28092
1293	0	32812	32656	28089
1294	0	32816	32664	28104
1295	0	32832	32644	28128
1296	0	32832	32636	28148
1297	0	32824	32644	28145
1298	0	32820	32664	28149
1299	0	32828	32648	28128
1300	0	32829	32652	28140
1301	0	32832	32652	28150
1302	0	32832	32653	28148
1303	0	32820	32661	28160
1304	0	32808	32672	28157
1305	0	32796	32672	28164
1306	0	32800	32672	28148
1307	0	32784	32680	28156
1308	0	32789	32672	28160
1309	0	32792	32672	28164
1310	0	32793	32664	28168
1311	0	32792	32668	28157
1312	0	32808	32672	28172
1313	0	32792	32664	28160
1314	0	32792	32668	28164
1315	0	32784	32668	28176
1316	0	32776	32672	28168
1317	0	32768	32676	28164
1318	0	32760	32684	28173
1319	0	32752	32668	28165
1320	0	32752	32692	28164
1321	0	32736	32696	28168
1322	0	32724	32704	28168
1323	0	32720	32696	28180
1324	0	32720	32690	28193
1325	0	32720	32696	28204
1326	0	32696	32688	28196
1327	0	32705	32684	28212
1328	0	32712	32692	28224
1329	0	32708	32700	28232
1330	0	32720	32688	28212
1331	0	32720	32672	28240
1332	0	32696	32676	28232
1333	0	32692	32692	28224
1334	0	32696	32681	28200
1335	0	32692	32688	28192
1336	0	32688	32704	28188
1337	0	32680	32704	28180
1338	0	32676	32720	28168
1339	0	32676	32724	28180
1340	0	32668	32736	28176
1341	0	32672	32732	28160
1342	0	32672	32728	28156
1343	0	32672	32720	28160
1344	0	32664	32728	28144
1345	0	32664	32712	28136
1346	0	32664	32712	28120
1347	0	32656	32716	28125
1348	0	32648	32725	28124
1349	0	32640	32716	28116
1350	0	32620	32728	28112
1351	0	32624	32712	28104
1352	0	32624	32704	28104
1353	0	32632	32696	28094
1354	0	32624	32688	28118
1355	0	32612	32696	28100
1356	0	32624	32680	28088
1357	0	32624	32664	28084
1358	0	32624	32664	28076
1359	0	32636	32664	28068
1360	0	32636	32664	28044
1361	0	32628	32656	28016
1362	0	32616	32656	28020
1363	0	32612	32652	28012
1364	0	32624	32656	27996
1365	0	32617	32648	28000
1366	0	32628	32657	28028
1367	0	32620	32656	28020
1368	0	32628	32660	28036
1369	0	32616	32652	28032
1370	0	32608	32660	28044
1371	0	32586	32668	28045
1372	0	32588	32680	28048
1373	0	32584	32676	28068
1374	0	32584	32664	28086
1375	0	32568	32664	28088
1376	0	32576	32668	28088
1377	0	32552	32668	28096
1378	0	32548	32672	28101
1379	0	32552	32652	28105
1380	0	32544	32672	28109
1381	0	32528	32677	28112
1382	0	32520	32664	28112
1383	0	32532	32664	28124
1384	0	32520	32664	28120
1385	0	32512	32664	28136
1386	0	32497	32660	28124
1387	0	32480	32668	28100
1388	0	32472	32660	28108
1389	0	32464	32656	28124
1390	0	32476	32664	28124
1391	0	32476	32644	28120
1392	0	32472	32648	28108
1393	0	32456	32652	28116
1394	0	32448	32668	28116
1395	0	32440	32648	28100
1396	0	32436	32650	28108
1397	0	32420	32656	28093
1398	0	32413	32668	28104
1399	0	32416	32664	28096
1400	0	32413	32660	28108
1401	0	32416	32660	28104
1402	0	32408	32672	28116
1403	0	32412	32660	28100
1404	0	32408	32660	28094
1405	0	32408	32668	28116
1406	0	32412	32660	28112
1407	0	32408	32652	28120
1408	0	32416	32648	28120
1409	0	32424	32640	28120
1410	0	32424	32644	28116
1411	0	32424	32636	28120
1412	0	32436	32632	28116
1413	0	32448	32640	28128
1414	0	32440	32632	28132
1415	0	32436	32636	28148
1416	0	32436	32632	28144
1417	0	32440	32640	28156
1418	0	32444	32632	28148
1419	0	32432	32632	28140
1420	0	32440	32632	28136
1421	0	32428	32624	28132
1422	0	32440	32628	28145
1423	0	32441	32620	28140
1424	0	32440	32620	28124
1425	0	32440	32620	28128
1426	0	32437	32605	28112
1427	0	32448	32604	28120
1428	0	32448	32608	28108
1429	0	32436	32596	28120
1430	0	32416	32600	28124
1431	0	32424	32596	28128
1432	0	32408	32600	28120
1433	0	32396	32600	28126
1434	0	32376	32600	28124
1435	0	32352	32604	28104
1436	0	32345	32604	28100
1437	0	32360	32596	28120
1438	0	32372	32612	28112
1439	0	32412	32608	28112
1440	0	32432	32608	28140
1441	0	32476	32600	28160
1442	0	32512	32613	28160
1443	0	32542	32612	28172
1444	0	32560	32620	28176
1445	0	32576	32632	28184
1446	0	32588	32644	28180
1447	0	32612	32640	28193
1448	0	32624	32642	28172
1449	0	32632	32656	28164
1450	0	32616	32676	28184
1451	0	32608	32688	28188
1452	0	32616	32676	28192
1453	0	32624	32688	28192
1454	0	32632	32684	28212
1455	0	32628	32676	28244
1456	0	32624	32688	28244
1457	0	32624	32696	28248
1458	0	32632	32712	28244
1459	0	32640	32708	28260
1460	0	32648	32729	28276
1461	0	32660	32732	28272
1462	0	32664	32735	28268
1463	0	32660	32732	28268
1464	0	32680	32725	28276
1465	0	32672	32728	28256
1466	0	32684	32724	28260
1467	0	32676	32740	28264
1468	0	32665	32740	28252
1469	0	32657	32748	28229
1470	0	32648	32752	28220
1471	0	32652	32744	28193
1472	0	32672	32728	28204
1473	0	32664	32748	28200
1474	0	32656	32724	28180
1475	0	32648	32732	28172
1476	0	32640	32736	28156
1477	0	32649	32720	28148
1478	0	32645	32697	28142
1479	0	32664	32696	28144
1480	0	32648	32696	28132
1481	0	32656	32694	28128
1482	0	32656	32680	28128
1483	0	32648	32676	28129
1484	0	32648	32680	28126
1485	0	32660	32688	28112
1486	0	32668	32697	28093
1487	0	32676	32704	28108
1488	0	32672	32696	28124
1489	0	32676	32704	28132
1490	0	32690	32696	28145
1491	0	32660	32712	28141
1492	0	32652	32704	28156
1493	0	32656	32704	28152
1494	0	32676	32680	28140
1495	0	32664	32672	28148
1496	0	32664	32692	28148
1497	0	32673	32688	28172
1498	0	32688	32708	28185
1499	0	32704	32692	28200
1500	0	32728	32696	28204
1501	0	32724	32697	28204
1502	0	32720	32700	28216
1503	0	32728	32700	28216
1504	0	32740	32704	28209
1505	0	32752	32698	28205
1506	0	32752	32712	28216
1507	0	32756	32720	28217
1508	0	32756	32724	28224
1509	0	32740	32744	28228
1510	0	32740	32748	28220
1511	0	32760	32748	28217
1512	0	32764	32748	28208
1513	0	32784	32748	28204
1514	0	32768	32764	28204
1515	0	32760	32764	28184
1516	0	32764	32780	28208
1517	0	32760	32772	28193
1518	0	32760	32800	28185
1519	0	32756	32808	28192
1520	0	32748	32816	28188
1521	0	32760	32816	28208
1522	0	32760	32812	28204
1523	0	32764	32808	28196
1524	0	32768	32800	28220
1525	0	32760	32812	28204
1526	0	32776	32816	28196
1527	0	32768	32824	28200
1528	0	32764	32832	28206
1529	0	32768	32832	28200
1530	0	32773	32848	28200
1531	0	32788	32836	28204
1532	0	32796	32840	28212
1533	0	32796	32848	28228
1534	0	32804	32840	28228
1535	0	32808	32844	28228
1536	0	32824	32840	28240
1537	0	32804	32844	28244
1538	0	32800	32848	28244
1539	0	32800	32836	28248
1540	0	32796	32820	28234
1541	0	32808	32820	28208
1542	0	32812	32824	28208
1543	0	32800	32828	28200
1544	0	32796	32840	28192
1545	0	32804	32840	28193
1546	0	32788	32828	28200
1547	0	32784	32840	28207
1548	0	32784	32848	28180
1549	0	32784	32856	28184
1550	0	32792	32856	28184
1551	0	32792	32844	28193
1552	0	32804	32852	28208
1553	0	32816	32857	28200
1554	0	32825	32860	28200
1555	0	32844	32852	28224
1556	0	32856	32844	28220
1557	0	32848	32840	28204
1558	0	32860	32832	28200
1559	0	32872	32860	28188
1560	0	32872	32880	28180
1561	0	32876	32893	28193
1562	0	32892	32893	28208
1563	0	32908	32892	28214
1564	0	32916	32888	28216
1565	0	32928	32916	28225
1566	0	32952	32908	28240
1567	0	32948	32936	28248
1568	0	32960	32944	28253
1569	0	32976	32956	28280
1570	0	32988	32952	28256
1571	0	33000	32948	28248
1572	0	32992	32964	28264
1573	0	32996	32960	28268
1574	0	32996	32968	28248
1575	0	33004	32964	28269
1576	0	33012	32960	28248
1577	0	33004	32968	28232
1578	0	33000	32958	28232
1579	0	33000	32956	28220
1580	0	33004	32945	28216
1581	0	33000	32952	28196
1582	0	32992	32960	28174
1583	0	32984	32964	28136
1584	0	32968	32961	28116
1585	0	32960	32976	28084
1586	0	32952	32968	28060
1587	0	32940	32976	28044
1588	0	32936	32969	28052
1589	0	32928	32960	28045
1590	0	32908	32980	28044
1591	0	32908	32968	28032
1592	0	32896	32980	28020
1593	0	32820	32840	28020
1594	0	32788	32776	27984
1595	0	32800	32868	27940
1596	0	32760	32916	27948
1597	0	32752	32940	27944
1598	0	32752	32968	27929
1599	0	32744	32993	27932
1600	0	32752	32992	27925
1601	0	32772	33000	27928
1602	0	32788	33024	27924
1603	0	32804	33036	27932
1604	0	32812	33048	27945
1605	0	32816	33056	27972
1606	0	32828	33064	27968
1607	0	32836	33060	27973
1608	0	32856	33052	27992
1609	0	32856	33060	28000
1610	0	32864	33072	28016
1611	0	32880	33088	28026
1612	0	32888	33088	28025
1613	0	32900	33092	28036
1614	0	32916	33112	28056
1615	0	32928	33104	28077
1616	0	32920	33096	28108
1617	0	32920	33084	28120
1618	0	32900	33080	28133
1619	0	32896	33068	28136
1620	0	32888	33070	28136
1621	0	32872	33068	28152
1622	0	32872	33060	28176
1623	0	32868	33060	28200
1624	0	32868	33064	28208
1625	0	32860	33068	28224
1626	0	32868	33060	28228
1627	0	32848	33048	28256
1628	0	32841	33032	28256
1629	0	32832	33032	28249
1630	0	32832	33016	28265
1631	0	32824	33016	28268
1632	0	32841	33008	28264
1633	0	32840	32992	28284
1634	0	32848	32980	28304
1635	0	32848	32972	28304
1636	0	32860	32968	28304
1637	0	32849	32960	28308
1638	0	32844	32952	28305
1639	0	32840	32968	28288
1640	0	32872	32952	28260
1641	0	32880	32956	28244
1642	0	32848	32964	28240
1643	0	32824	32980	28232
1644	0	32800	32996	28188
1645	0	32796	32992	28144
1646	0	32808	32980	28124
1647	0	32800	32980	28120
1648	0	32800	32988	28092
1649	0	32800	33012	28056
1650	0	32792	33016	28064
1651	0	32796	33028	28057
1652	0	32800	33040	28040
1653	0	32820	33036	28028
1654	0	32832	33052	28008
1655	0	32832	33064	27998
1656	0	32812	33076	28000
1657	0	32816	33080	28012
1658	0	32829	33088	28016
1659	0	32840	33084	28016
1660	0	32852	33080	28048
1661	0	32856	33064	28096
1662	0	32868	33056	28100
1663	0	32892	33044	28084
1664	0	32880	33048	28069
1665	0	32872	33028	28088
1666	0	32852	33013	28084
1667	0	32852	33008	28072
1668	0	32832	33004	28080
1669	0	32820	32989	28076
1670	0	32800	32988	28084
1671	0	32800	32977	28064
1672	0	32808	32980	28044
1673	0	32816	32974	28032
1674	0	32808	32956	28032
1675	0	32796	32944	28012
1676	0	32776	32953	28004
1677	0	32776	32944	28000
1678	0	32760	32956	28008
1679	0	32784	32932	28032
1680	0	32784	32912	28036
1681	0	32800	32928	28032
1682	0	32804	32940	28048
1683	0	32820	32952	28032
1684	0	32816	32964	28032
1685	0	32820	32964	28048
1686	0	32816	32968	28036
1687	0	32812	32976	28048
1688	0	32788	32980	28068
1689	0	32812	32972	28080
1690	0	32784	32992	28080
1691	0	32769	33008	28089
1692	0	32784	33016	28080
1693	0	32808	33024	28069
1694	0	32816	33000	28060
1695	0	32832	33016	28041
1696	0	32844	33013	28056
1697	0	32840	33020	28076
1698	0	32816	33020	28084
1699	0	32797	33020	28088
1700	0	32804	33004	28096
1701	0	32832	33000	28084
1702	0	32824	33028	28076
1703	0	32788	33024	28068
1704	0	32820	33020	28052
1705	0	32800	33016	28040
1706	0	32800	33025	28044
1707	0	32792	32992	28056
1708	0	32736	33008	28048
1709	0	32712	32996	28061
1710	0	32668	32985	28072
1711	0	32628	32988	28069
1712	0	32592	32980	28085
1713	0	32576	32976	28076
1714	0	32596	32984	28044
1715	0	32624	32988	28040
1716	0	32612	33000	28040
1717	0	32616	32992	28040
1718	0	32640	33004	28040
1719	0	32593	33012	28044
1720	0	32576	33032	28048
1721	0	32540	33012	28088
1722	0	32620	32988	28072
1723	0	32652	32968	28084
1724	0	32720	32968	28088
1725	0	32736	32972	28092
1726	0	32728	32988	28132
1727	0	32688	33000	28172
1728	0	32648	33005	28180
1729	0	32648	32972	28208
1730	0	32672	32925	28228
1731	0	32728	32932	28220
1732	0	32752	32948	28176
1733	0	32764	32956	28144
1734	0	32744	32988	28140
1735	0	32704	32980	28185
1736	0	32616	32996	28202
1737	0	32624	32960	28216
1738	0	32624	32924	28204
1739	0	32644	32896	28165
1740	0	32692	32884	28148
1741	0	32712	32862	28184
1742	0	32664	32872	28192
1743	0	32676	32844	28204
1744	0	32676	32836	28192
1745	0	32632	32848	28176
1746	0	32576	32884	28156
1747	0	32560	32844	28148
1748	0	32576	32824	28188
1749	0	32624	32801	28172
1750	0	32592	32840	28184
1751	0	32576	32836	28191
1752	0	32608	32808	28152
1753	0	32621	32816	28128
1754	0	32600	32808	28124
1755	0	32552	32805	28172
1756	0	32560	32820	28144
1757	0	32576	32804	28156
1758	0	32564	32808	28148
1759	0	32572	32805	28152
1760	0	32548	32828	28128
1761	0	32496	32828	28168
1762	0	32564	32812	28140
1763	0	32568	32808	28104
1764	0	32584	32804	28084
1765	0	32552	32808	28088
1766	0	32560	32820	28104
1767	0	32760	32800	28045
1768	0	32828	32824	28020
1769	0	32716	32848	28068
1770	0	32616	32825	28125
1771	0	32496	32808	28176
1772	0	32480	32784	28180
1773	0	32644	32752	28132
1774	0	32708	32756	28104
1775	0	32784	32788	28108
1776	0	32792	32796	28124
1777	0	32728	32812	28169
1778	0	32680	32832	28188
1779	0	32644	32828	28208
1780	0	32632	32804	28224
1781	0	32628	32784	28244
1782	0	32608	32812	28248
1783	0	32540	32828	28292
1784	0	32476	32796	28324
1785	0	32456	32804	28308
1786	0	32484	32808	28316
1787	0	32545	32804	28280
1788	0	32576	32812	28236
1789	0	32560	32832	28228
1790	0	32504	32840	28240
1791	0	32440	32852	28252
1792	0	32392	32852	28301
1793	0	32440	32824	28276
1794	0	32465	32832	28256
1795	0	32540	32828	28200
1796	0	32584	32836	28190
1797	0	32576	32844	28214
1798	0	32560	32824	28228
1799	0	32516	32816	28252
1800	0	32473	32800	28276
1801	0	32456	32776	28268
1802	0	32440	32776	28276
1803	0	32444	32788	28257
1804	0	32484	32799	28228
1805	0	32496	32820	28224
1806	0	32528	32820	28240
1807	0	32548	32848	28204
1808	0	32576	32836	28172
1809	0	32576	32844	28164
1810	0	32568	32864	28148
1811	0	32540	32888	28127
1812	0	32525	32894	28132
1813	0	32488	32908	28129
1814	0	32472	32880	28156
1815	0	32500	32864	28152
1816	0	32484	32888	28128
1817	0	32476	32896	28136
1818	0	32521	32908	28112
1819	0	32544	32940	28076
1820	0	32544	32956	28044
1821	0	32576	32948	28048
1822	0	32560	32948	28036
1823	0	32536	32928	28020
1824	0	32520	32896	28056
1825	0	32472	32896	28084
1826	0	32416	32900	28105
1827	0	32416	32884	28132
1828	0	32440	32864	28112
1829	0	32440	32896	28104
1830	0	32452	32900	28109
1831	0	32440	32888	28116
1832	0	32372	32889	28136
1833	0	32265	32868	28180
1834	0	32264	32848	28172
1835	0	32428	32828	28104
1836	0	32496	32848	28094
1837	0	32552	32860	28108
1838	0	32640	32820	28056
1839	0	32532	32844	28072
1840	0	32604	32804	28108
1841	0	32656	32788	28068
1842	0	32668	32796	28088
1843	0	32697	32776	28088
1844	0	32660	32780	28104
1845	0	32540	32812	28128
1846	0	32568	32820	28140
1847	0	32565	32840	28142
1848	0	32692	32840	28108
1849	0	32744	32840	28084
1850	0	32652	32856	28144
1851	0	32640	32832	28168
1852	0	32580	32832	28200
1853	0	32536	32830	28236
1854	0	32540	32796	28248
1855	0	32624	32824	28232
1856	0	32624	32842	28200
1857	0	32612	32852	28209
1858	0	32648	32836	28196
1859	0	32552	32842	28224
1860	0	32472	32864	28264
1861	0	32520	32840	28224
1862	0	32584	32848	28222
1863	0	32648	32868	28244
1864	0	32592	32884	28280
1865	0	32576	32868	28312
1866	0	32532	32852	28300
1867	0	32564	32860	28288
1868	0	32572	32848	28280
1869	0	32576	32860	28276
1870	0	32556	32844	28264
1871	0	32464	32844	28269
1872	0	32528	32840	28232
1873	0	32612	32848	28200
1874	0	32656	32872	28181
1875	0	32656	32880	28176
1876	0	32636	32900	28113
1877	0	32600	32916	28080
1878	0	32553	32920	28108
1879	0	32496	32894	28140
1880	0	32416	32896	28180
1881	0	32360	32876	28189
1882	0	32280	32876	28184
1883	0	32348	32872	28132
1884	0	32488	32892	28076
1885	0	32636	32904	28036
1886	0	32684	32942	28012
1887	0	32608	32980	28028
1888	0	32524	32960	28068
1889	0	32472	32949	28080
1890	0	32416	32916	28104
1891	0	32416	32916	28104
1892	0	32440	32900	28112
1893	0	32472	32904	28128
1894	0	32476	32884	28116
1895	0	32416	32888	28080
1896	0	32528	32888	28032
1897	0	32608	32908	28036
1898	0	32660	32916	28004
1899	0	32648	32912	28044
1900	0	32648	32896	28077
1901	0	32592	32880	28088
1902	0	32520	32892	28117
1903	0	32461	32880	28152
1904	0	32416	32872	28172
1905	0	32392	32884	28184
1906	0	32408	32881	28196
1907	0	32488	32877	28158
1908	0	32504	32872	28136
1909	0	32524	32872	28136
1910	0	32528	32888	28152
1911	0	32584	32908	28112
1912	0	32656	32908	28084
1913	0	32676	32908	28080
1914	0	32640	32888	28100
1915	0	32620	32884	28104
1916	0	32580	32868	28136
1917	0	32540	32860	28152
1918	0	32468	32872	28152
1919	0	32440	32888	28128
1920	0	32376	32889	28168
1921	0	32400	32864	28188
1922	0	32576	32892	28116
1923	0	32800	32912	28028
1924	0	32780	32964	28032
1925	0	32728	32957	28076
1926	0	32704	32932	28084
1927	0	32612	32908	28088
1928	0	32484	32924	28116
1929	0	32408	32904	28173
1930	0	32352	32892	28190
1931	0	32232	32892	28224
1932	0	32384	32909	28190
1933	0	32588	32944	28088
1934	0	32760	32972	28064
1935	0	32800	32972	28040
1936	0	32684	32948	28072
1937	0	32452	32908	28168
1938	0	32276	32888	28209
1939	0	32284	32864	28260
1940	0	32448	32888	28172
1941	0	32592	32940	28128
1942	0	32640	32956	28156
1943	0	32713	32960	28096
1944	0	32684	32956	28076
1945	0	32600	32948	28092
1946	0	32556	32928	28140
1947	0	32556	32924	28156
1948	0	32504	32924	28144
1949	0	32468	32948	28148
1950	0	32480	32940	28144
1951	0	32568	32948	28156
1952	0	32728	32960	28108
1953	0	32812	32986	28044
1954	0	32728	33000	28084
1955	0	32596	32996	28120
1956	0	32512	32964	28168
1957	0	32484	32940	28156
1958	0	32596	32952	28136
1959	0	32800	32964	28068
1960	0	32800	33028	28068
1961	0	32688	33028	28105
1962	0	32560	32996	28180
1963	0	32524	32968	28208
1964	0	32592	32976	28188
1965	0	32644	32968	28152
1966	0	32696	32976	28189
1967	0	32664	32964	28224
1968	0	32656	32996	28216
1969	0	32704	33000	28208
1970	0	32784	32990	28188
1971	0	32816	32988	28172
1972	0	32832	32980	28188
1973	0	32784	32992	28172
1974	0	32740	32972	28176
1975	0	32700	32972	28156
1976	0	32696	32992	28152
1977	0	32664	32960	28192
1978	0	32612	32960	28228
1979	0	32612	32988	28232
1980	0	32640	32992	28220
1981	0	32720	32976	28192
1982	0	32704	33000	28162
1983	0	32636	33008	28160
1984	0	32640	32992	28152
1985	0	32544	32992	28152
1986	0	32508	32996	28140
1987	0	32560	32980	28124
1988	0	32660	32980	28112
1989	0	32756	32976	28112
1990	0	32804	32988	28056
1991	0	32852	32996	28025
1992	0	32864	32993	28028
1993	0	32832	32992	28060
1994	0	32768	32969	28064
1995	0	32721	32952	28076
1996	0	32617	32968	28104
1997	0	32512	32964	28136
1998	0	32448	32964	28180
1999	0	32472	32942	28168
2000	0	32552	32936	28168
2001	0	32612	32960	28116
2002	0	32676	32976	28096
2003	0	32740	32964	28100
2004	0	32752	32976	28072
2005	0	32708	32980	28072
2006	0	32688	32992	28079
2007	0	32676	32964	28080
2008	0	32736	32960	28076
2009	0	32772	32960	28060
2010	0	32800	32972	28057
2011	0	32777	32956	28072
2012	0	32760	32960	28096
2013	0	32744	32956	28104
2014	0	32720	32948	28104
2015	0	32668	32958	28088
2016	0	32600	32984	28096
2017	0	32608	32984	28128
2018	0	32656	32972	28164
2019	0	32648	32976	28128
2020	0	32644	33012	28116
2021	0	32704	33005	28100
2022	0	32736	33000	28102
2023	0	32736	33036	28060
2024	0	32688	33032	28062
2025	0	32605	33044	28077
2026	0	32521	33040	28096
2027	0	32544	33025	28108
2028	0	32540	33012	28124
2029	0	32648	33028	28096
2030	0	32764	33036	28092
2031	0	32804	33016	28109
2032	0	32704	33048	28144
2033	0	32624	33032	28156
2034	0	32648	33036	28168
2035	0	32636	33024	28172
2036	0	32594	33012	28204
2037	0	32576	32992	28224
2038	0	32592	33000	28240
2039	0	32608	33028	28224
2040	0	32624	33052	28216
2041	0	32708	33040	28204
2042	0	32720	33040	28216
2043	0	32784	33052	28200
2044	0	32872	33044	28168
2045	0	32889	33068	28168
2046	0	32828	33088	28180
2047	0	32936	33076	28164
2048	0	33052	33088	28124
2049	0	32984	33104	28140
2050	0	32880	33100	28182
2051	0	32788	33056	28240
2052	0	32816	33036	28244
2053	0	32904	33024	28256
2054	0	33016	33032	28224
2055	0	33049	33052	28216
2056	0	33008	33053	28236
2057	0	32952	33032	28276
2058	0	33028	32980	28253
2059	0	32948	32984	28284
2060	0	32908	32988	28300
2061	0	32960	32964	28316
2062	0	32992	32961	28312
2063	0	32952	32968	28320
2064	0	32876	32996	28325
2065	0	32892	33017	28296
2066	0	32940	33033	28254
2067	0	32936	33045	28232
2068	0	32876	33040	28221
2069	0	32896	33020	28188
2070	0	32892	32996	28173
2071	0	32860	32964	28184
2072	0	32776	32980	28176
2073	0	32752	33044	28184
2074	0	32804	33028	28173
2075	0	32840	33064	28204
2076	0	32840	33101	28196
2077	0	32824	33132	28192
2078	0	32840	33135	28176
2079	0	32884	33124	28188
2080	0	32900	33104	28192
2081	0	32876	33196	28189
2082	0	32830	33216	28189
2083	0	32760	33168	28176
2084	0	32760	33116	28153
2085	0	32872	33084	28128
2086	0	32992	33084	28132
2087	0	32936	33109	28140
2088	0	32892	33132	28153
2089	0	32884	33128	28144
2090	0	32848	33152	28160
2091	0	32760	33124	28164
2092	0	32692	33152	28177
2093	0	32668	33140	28156
2094	0	32720	33120	28168
2095	0	32764	33132	28153
2096	0	32784	33160	28116
2097	0	32776	33164	28124
2098	0	32792	33124	28105
2099	0	32752	33145	28096
2100	0	32684	33172	28116
2101	0	32592	33144	28152
2102	0	32616	33144	28156
2103	0	32668	33176	28150
2104	0	32720	33148	28136
2105	0	32780	33160	28140
2106	0	32744	33192	28150
2107	0	32804	33152	28144
2108	0	32872	33128	28140
2109	0	32912	33140	28160
2110	0	32880	33181	28160
2111	0	32860	33160	28180
2112	0	32844	33168	28164
2113	0	32820	33160	28162
2114	0	32876	33104	28128
2115	0	32968	33112	28112
2116	0	32984	33128	28132
2117	0	32932	33112	28126
2118	0	32964	33108	28112
2119	0	32948	33160	28112
2120	0	32932	33120	28128
2121	0	32856	33152	28152
2122	0	32840	33182	28156
2123	0	32864	33169	28128
2124	0	32916	33200	28156
2125	0	32912	33212	28152
2126	0	32948	33160	28120
2127	0	32924	33160	28156
2128	0	32896	33196	28176
2129	0	32916	33188	28160
2130	0	32900	33184	28176
2131	0	32760	33236	28212
2132	0	32744	33232	28204
2133	0	32728	33192	28216
2134	0	32744	33184	28228
2135	0	32756	33196	28213
2136	0	32856	33160	28216
2137	0	32868	33212	28200
2138	0	32864	33196	28232
2139	0	32816	33200	28232
2140	0	32804	33204	28228
2141	0	32744	33228	28236
2142	0	32684	33216	28248
2143	0	32784	33176	28214
2144	0	32992	33200	28192
2145	0	32920	33264	28268
2146	0	32832	33300	28272
2147	0	32764	33268	28240
2148	0	32824	33236	28208
2149	0	32808	33208	28208
2150	0	32804	33128	28204
2151	0	32916	33176	28188
2152	0	32940	33236	28204
2153	0	32968	33272	28228
2154	0	32992	33292	28220
2155	0	32904	33288	28200
2156	0	32848	33328	28168
2157	0	32798	33288	28156
2158	0	32788	33264	28164
2159	0	32844	33284	28152
2160	0	32896	33300	28132
2161	0	32868	33296	28136
2162	0	32912	33340	28116
2163	0	32928	33360	28100
2164	0	32920	33356	28096
2165	0	32964	33384	28084
2166	0	33000	33360	28084
2167	0	33088	33337	28049
2168	0	32960	33368	28040
2169	0	32896	33340	28036
2170	0	32980	33344	28036
2171	0	32992	33309	28062
2172	0	32944	33288	28036
2173	0	32960	33308	28048
2174	0	33012	33312	28056
2175	0	33008	33276	28068
2176	0	32940	33276	28080
2177	0	32900	33324	28096
2178	0	32928	33348	28116
2179	0	32908	33316	28084
2180	0	32920	33332	28096
2181	0	33056	33316	28096
2182	0	33040	33312	28124
2183	0	33016	33344	28157
2184	0	33068	33288	28133
2185	0	33048	33289	28140
2186	0	33012	33313	28124
2187	0	33000	33345	28104
2188	0	32968	33368	28121
2189	0	32940	33396	28148
2190	0	32984	33320	28136
2191	0	32972	33304	28156
2192	0	32928	33284	28182
2193	0	32960	33280	28164
2194	0	33044	33268	28157
2195	0	33068	33292	28160
2196	0	33032	33284	28164
2197	0	33064	33288	28116
2198	0	33108	33297	28120
2199	0	33072	33324	28172
2200	0	32984	33332	28176
2201	0	32952	33344	28148
2202	0	32980	33304	28137
2203	0	33000	33280	28145
2204	0	33056	33269	28148
2205	0	33000	33285	28181
2206	0	32988	33268	28160
2207	0	32992	33276	28144
2208	0	33052	33268	28120
2209	0	33084	33268	28104
2210	0	33080	33316	28156
2211	0	33052	33332	28200
2212	0	33040	33376	28180
2213	0	33028	33380	28164
2214	0	33012	33376	28152
2215	0	33000	33368	28144
2216	0	33052	33264	28144
2217	0	33104	33360	28189
2218	0	33112	33481	28184
2219	0	33056	33560	28120
2220	0	33032	33604	28046
2221	0	32956	33600	28093
2222	0	32932	33536	28128
2223	0	32928	33428	28144
2224	0	32964	33328	28148
2225	0	32956	33256	28168
2226	0	32988	33205	28192
2227	0	32976	33133	28204
2228	0	32976	33132	28220
2229	0	32952	33144	28264
2230	0	32992	33176	28280
2231	0	33056	33184	28296
2232	0	33052	33244	28256
2233	0	33000	33348	28252
2234	0	33028	33377	28236
2235	0	33008	33424	28228
2236	0	32960	33452	28210
2237	0	32984	33464	28188
2238	0	33016	33472	28208
2239	0	32988	33468	28185
2240	0	32988	33456	28176
2241	0	33000	33448	28177
2242	0	32960	33428	28200
2243	0	32960	33432	28200
2244	0	32912	33444	28188
2245	0	32864	33432	28184
2246	0	32876	33392	28176
2247	0	32944	33380	28168
2248	0	33000	33356	28188
2249	0	33064	33344	28196
2250	0	33064	33372	28193
2251	0	33008	33401	28184
2252	0	32960	33448	28189
2253	0	32944	33452	28184
2254	0	32944	33460	28184
2255	0	32992	33460	28192
2256	0	33012	33456	28200
2257	0	33016	33468	28200
2258	0	33020	33456	28184
2259	0	33032	33440	28192
2260	0	33036	33444	28180
2261	0	33040	33444	28184
2262	0	33020	33440	28172
2263	0	33012	33440	28156
2264	0	33000	33408	28156
2265	0	33008	33396	28158
2266	0	33056	33400	28148
2267	0	33076	33396	28152
2268	0	33080	33380	28152
2269	0	33076	33380	28140
2270	0	33064	33388	28120
2271	0	33052	33384	28116
2272	0	33040	33400	28111
2273	0	33064	33412	28120
2274	0	33072	33432	28116
2275	0	33080	33424	28092
2276	0	33084	33404	28112
2277	0	33100	33396	28096
2278	0	33096	33388	28084
2279	0	33096	33372	28096
2280	0	33104	33352	28112
2281	0	33108	33340	28132
2282	0	33120	33340	28152
2283	0	33108	33352	28156
2284	0	33112	33358	28140
2285	0	33112	33364	28152
2286	0	33104	33348	28176
2287	0	33124	33358	28205
2288	0	33116	33348	28224
2289	0	33120	33340	28214
2290	0	33120	33328	28208
2291	0	33124	33344	28196
2292	0	33120	33348	28193
2293	0	33112	33364	28168
2294	0	33104	33364	28169
2295	0	33116	33393	28184
2296	0	33112	33400	28192
2297	0	33117	33398	28216
2298	0	33116	33412	28213
2299	0	33132	33392	28216
2300	0	33120	33392	28216
2301	0	33096	33380	28216
2302	0	33104	33376	28212
2303	0	33108	33380	28228
2304	0	33100	33388	28228
2305	0	33092	33376	28208
2306	0	33096	33384	28212
2307	0	33092	33396	28208
2308	0	33076	33420	28192
2309	0	33053	33424	28196
2310	0	33056	33412	28173
2311	0	33064	33416	28172
2312	0	33068	33424	28172
2313	0	33064	33448	28172
2314	0	33068	33452	28164
2315	0	33080	33464	28160
2316	0	33072	33480	28164
2317	0	33056	33489	28164
2318	0	33060	33468	28180
2319	0	33056	33470	28172
2320	0	33060	33480	28151
2321	0	33036	33488	28152
2322	0	33040	33472	28120
2323	0	33044	33468	28120
2324	0	33044	33476	28120
2325	0	33052	33484	28120
2326	0	33048	33480	28124
2327	0	33048	33488	28112
2328	0	33048	33472	28104
2329	0	33048	33468	28088
2330	0	33053	33456	28088
2331	0	33044	33453	28096
2332	0	33052	33436	28082
2333	0	33064	33432	28077
2334	0	33080	33438	28093
2335	0	33080	33456	28092
2336	0	33084	33445	28096
2337	0	33093	33464	28096
2338	0	33100	33456	28104
2339	0	33088	33460	28096
2340	0	33080	33448	28064
2341	0	33080	33436	28096
2342	0	33072	33428	28097
2343	0	33072	33408	28102
2344	0	33080	33400	28105
2345	0	33072	33408	28105
2346	0	33072	33404	28106
2347	0	33068	33412	28116
2348	0	33084	33424	28113
2349	0	33100	33432	28112
2350	0	33104	33448	28112
2351	0	33124	33428	28108
2352	0	33124	33437	28108
2353	0	33132	33432	28120
2354	0	33120	33420	28124
2355	0	33120	33424	28144
2356	0	33128	33418	28148
2357	0	33132	33416	28169
2358	0	33136	33412	28184
2359	0	33156	33412	28200
2360	0	33164	33400	28222
2361	0	33156	33400	28248
2362	0	33156	33412	28264
2363	0	33160	33412	28264
2364	0	33168	33400	28280
2365	0	33188	33380	28293
2366	0	33181	33373	28328
2367	0	33181	33344	28344
2368	0	33180	33312	28358
2369	0	33180	33312	28344
2370	0	33180	33276	28352
2371	0	33176	33160	28364
2372	0	33132	32632	28420
2373	0	33200	32732	28484
2374	0	33252	32872	28512
2375	0	33248	32952	28500
2376	0	33256	33028	28444
2377	0	33256	33140	28404
2378	0	33248	33236	28352
2379	0	33240	33320	28304
2380	0	33224	33404	28270
2381	0	33208	33488	28244
2382	0	33180	33556	28236
2383	0	33156	33613	28217
2384	0	33144	33636	28192
2385	0	33140	33648	28188
2386	0	33152	33648	28156
2387	0	33160	33664	28132
2388	0	33196	33660	28096
2389	0	33208	33644	28092
2390	0	33224	33616	28084
2391	0	33224	33616	28084
2392	0	33240	33600	28088
2393	0	33216	33596	28092
2394	0	33181	33564	28088
2395	0	33184	33572	28084
2396	0	33184	33584	28089
2397	0	33184	33553	28092
2398	0	33156	33540	28088
2399	0	33124	33532	28088
2400	0	33120	33532	28121
2401	0	33088	33553	28108
2402	0	33080	33528	28140
2403	0	33084	33564	28160
2404	0	33016	33576	28156
2405	0	32980	33520	28180
2406	0	32944	33580	28164
2407	0	32948	33468	28220
2408	0	33000	33600	28292
2409	0	32928	33576	28316
2410	0	32976	33700	28308
2411	0	32948	33884	28269
2412	0	32864	33632	28223
2413	0	32960	33653	28288
2414	0	32932	33756	28348
2415	0	32900	33784	28332
2416	0	32880	33760	28296
2417	0	32884	33788	28308
2418	0	32848	33757	28340
2419	0	32857	33910	28332
2420	0	32792	33860	28309
2421	0	32808	33864	28332
2422	0	32832	33980	28344
2423	0	32796	33896	28376
2424	0	32825	33920	28384
2425	0	32796	33856	28432
2426	0	32860	33980	28476
2427	0	32749	33925	28476
2428	0	32712	33964	28428
2429	0	32720	34132	28416
2430	0	32704	34184	28400
2431	0	32768	34076	28372
2432	0	32800	34084	28404
2433	0	32820	33896	28488
2434	0	32860	34048	28565
2435	0	32728	34061	28524
2436	0	32644	34042	28408
2437	0	32548	34048	28336
2438	0	32600	33952	28268
2439	0	32604	33896	28273
2440	0	32704	34012	28252
2441	0	32820	34036	28208
2442	0	33000	34380	28176
2443	0	33056	33924	28113
2444	0	32988	33392	28168
2445	0	33108	33596	28325
2446	0	33136	33764	28368
2447	0	33152	33688	28276
2448	0	33140	33920	28256
2449	0	33084	34096	28184
2450	0	33008	34124	28076
2451	0	32976	34124	28025
2452	0	32964	34152	28024
2453	0	32953	34224	27996
2454	0	32972	34216	27980
2455	0	32960	34160	27952
2456	0	33032	34040	27936
2457	0	32996	33992	27944
2458	0	33116	34112	27928
2459	0	33140	33904	27952
2460	0	33128	33820	27980
2461	0	33192	34008	28032
2462	0	33224	34100	28004
2463	0	33208	33988	27964
2464	0	33180	33944	27988
2465	0	33148	33908	28005
2466	0	33216	34028	28044
2467	0	33176	33992	28052
2468	0	33176	34020	28048
2469	0	33160	33892	28032
2470	0	33152	33896	28056
2471	0	33232	33972	28060
2472	0	33256	33856	28052
2473	0	33196	33776	28070
2474	0	33244	33700	28096
2475	0	33284	33756	28124
2476	0	33276	33628	28112
2477	0	33288	33576	28128
2478	0	33308	33532	28132
2479	0	33316	33532	28154
2480	0	33344	33532	28156
2481	0	33368	33584	28172
2482	0	33388	33656	28168
2483	0	33420	33728	28148
2484	0	33432	33804	28128
2485	0	33440	33880	28116
2486	0	33448	33928	28116
2487	0	33436	33976	28116
2488	0	33436	33992	28120
2489	0	33432	33988	28152
2490	0	33416	33964	28172
2491	0	33393	33934	28220
2492	0	33384	33892	28216
2493	0	33380	33860	28232
2494	0	33356	33824	28277
2495	0	33356	33796	28320
2496	0	33384	33772	28344
2497	0	33392	33736	28340
2498	0	33400	33732	28349
2499	0	33400	33716	28392
2500	0	33404	33704	28416
2501	0	33400	33700	28400
2502	0	33396	33688	28414
2503	0	33384	33700	28440
2504	0	33376	33700	28448
2505	0	33364	33712	28445
2506	0	33360	33708	28457
2507	0	33344	33728	28444
2508	0	33320	33736	28452
2509	0	33300	33764	28464
2510	0	33292	33776	28461
2511	0	33280	33812	28461
2512	0	33288	33832	28444
2513	0	33272	33868	28421
2514	0	33248	33920	28432
2515	0	33240	33956	28416
2516	0	33224	33976	28406
2517	0	33200	33984	28404
2518	0	33192	33984	28388
2519	0	33180	33968	28384
2520	0	33168	33944	28380
2521	0	33168	33924	28364
2522	0	33165	33908	28372
2523	0	33152	33888	28368
2524	0	33148	33888	28368
2525	0	33145	33888	28376
2526	0	33152	33892	28372
2527	0	33144	33916	28384
2528	0	33145	33928	28376
2529	0	33160	33933	28344
2530	0	33164	33952	28346
2531	0	33164	33972	28344
2532	0	33173	33992	28316
2533	0	33181	34008	28332
2534	0	33172	34020	28340
2535	0	33160	34036	28340
2536	0	33176	34044	28340
2537	0	33184	34040	28332
2538	0	33188	34053	28316
2539	0	33192	34060	28324
2540	0	33196	34060	28340
2541	0	33204	34076	28320
2542	0	33204	34076	28308
2543	0	33216	34064	28320
2544	0	33217	34060	28308
2545	0	33230	34056	28308
2546	0	33240	34040	28332
2547	0	33248	34044	28336
2548	0	33268	34036	28332
2549	0	33268	34040	28318
2550	0	33264	34040	28301
2551	0	33264	34044	28302
2552	0	33272	34036	28296
2553	0	33264	34052	28300
2554	0	33252	34056	28308
2555	0	33244	34056	28324
2556	0	33240	34064	28300
2557	0	33240	34064	28300
2558	0	33244	34076	28308
2559	0	33240	34084	28297
2560	0	33244	34080	28288
2561	0	33244	34104	28269
2562	0	33260	34104	28268
2563	0	33260	34128	28284
2564	0	33272	34120	28288
2565	0	33272	34124	28284
2566	0	33288	34112	28296
2567	0	33288	34100	28300
2568	0	33280	34084	28304
2569	0	33280	34064	28312
2570	0	33280	34048	28336
2571	0	33304	34050	28341
2572	0	33304	34040	28364
2573	0	33296	34036	28356
2574	0	33296	34036	28368
2575	0	33301	34040	28356
2576	0	33304	34036	28352
2577	0	33308	34020	28353
2578	0	33312	34016	28352
2579	0	33320	34016	28348
2580	0	33324	34028	28316
2581	0	33320	34028	28308
2582	0	33336	34032	28300
2583	0	33336	34052	28312
2584	0	33356	34056	28300
2585	0	33368	34076	28292
2586	0	33380	34084	28292
2587	0	33385	34093	28284
2588	0	33376	34108	28276
2589	0	33384	34112	28280
2590	0	33388	34128	28268
2591	0	33412	34120	28253
2592	0	33416	34124	28232
2593	0	33408	34120	28252
2594	0	33408	34112	28253
2595	0	33408	34116	28268
2596	0	33404	34112	28276
2597	0	33392	34104	28276
2598	0	33376	34108	28292
2599	0	33368	34104	28297
2600	0	33356	34092	28316
2601	0	33352	34080	28304
2602	0	33336	34096	28296
2603	0	33328	34096	28316
2604	0	33324	34104	28328
2605	0	33312	34112	28332
2606	0	33292	34126	28344
2607	0	33284	34124	28356
2608	0	33276	34112	28376
2609	0	33248	34112	28392
2610	0	33244	34095	28404
2611	0	33228	34080	28414
2612	0	33240	34080	28404
2613	0	33232	34073	28416
2614	0	33236	34065	28412
2615	0	33232	34060	28413
2616	0	33236	34056	28428
2617	0	33232	34052	28414
2618	0	33232	34056	28404
2619	0	33232	34060	28404
2620	0	33240	34064	28425
2621	0	33244	34056	28416
2622	0	33244	34060	28424
2623	0	33256	34056	28396
2624	0	33256	34068	28392
2625	0	33264	34064	28376
2626	0	33268	34068	28384
2627	0	33264	34076	28376
2628	0	33264	34076	28376
2629	0	33256	34092	28352
2630	0	33265	34092	28348
2631	0	33284	34102	28324
2632	0	33280	34100	28340
2633	0	33300	34112	28324
2634	0	33304	34108	28304
2635	0	33308	34104	28288
2636	0	33328	34104	28272
2637	0	33344	34093	28240
2638	0	33328	34084	28224
2639	0	33360	34072	28224
2640	0	33364	34060	28212
2641	0	33368	34052	28208
2642	0	33380	34040	28232
2643	0	33372	34048	28224
2644	0	33384	34036	28220
2645	0	33376	34037	28221
2646	0	33384	34029	28232
2647	0	33376	34024	28228
2648	0	33404	33997	28224
2649	0	33396	33992	28244
2650	0	33400	33996	28256
2651	0	33396	34004	28264
2652	0	33396	34000	28256
2653	0	33400	34022	28260
2654	0	33408	34008	28268
2655	0	33400	34036	28280
2656	0	33408	34028	28289
2657	0	33408	34010	28300
2658	0	33416	33989	28312
2659	0	33416	33972	28318
2660	0	33432	33944	28328
2661	0	33428	33936	28356
2662	0	33444	33916	28352
2663	0	33444	33912	28360
2664	0	33452	33924	28344
2665	0	33456	33924	28352
2666	0	33472	33920	28344
2667	0	33488	33940	28352
2668	0	33512	33940	28368
2669	0	33508	33936	28372
2670	0	33528	33936	28357
2671	0	33524	33924	28364
2672	0	33528	33924	28350
2673	0	33536	33912	28338
2674	0	33528	33905	28344
2675	0	33532	33896	28346
2676	0	33520	33904	28344
2677	0	33524	33904	28344
2678	0	33508	33916	28356
2679	0	33508	33916	28352
2680	0	33504	33932	28365
2681	0	33508	33945	28352
2682	0	33504	33936	28333
2683	0	33496	33960	28340
2684	0	33464	33961	28344
2685	0	33448	33980	28346
2686	0	33448	33980	28366
2687	0	33432	33996	28376
2688	0	33412	34008	28380
2689	0	33392	34020	28372
2690	0	33388	34004	28360
2691	0	33376	34016	28368
2692	0	33368	34028	28352
2693	0	33344	34024	28352
2694	0	33328	34016	28356
2695	0	33320	34017	28348
2696	0	33308	34028	28356
2697	0	33304	34020	28376
2698	0	33320	34016	28376
2699	0	33320	34020	28396
2700	0	33312	34000	28376
2701	0	33296	34000	28384
2702	0	33312	34000	28388
2703	0	33312	34001	28396
2704	0	33304	33992	28413
2705	0	33300	33984	28424
2706	0	33308	33984	28416
2707	0	33308	33972	28412
2708	0	33304	33984	28404
2709	0	33308	33972	28389
2710	0	33308	33976	28372
2711	0	33313	33972	28376
2712	0	33320	33976	28376
2713	0	33320	33985	28376
2714	0	33320	33988	28380
2715	0	33324	33984	28364
2716	0	33316	33996	28364
2717	0	33324	33992	28356
2718	0	33324	33988	28360
2719	0	33328	33997	28364
2720	0	33328	34000	28372
2721	0	33340	33981	28348
2722	0	33336	33967	28352
2723	0	33344	33956	28344
2724	0	33340	33960	28348
2725	0	33348	33949	28340
2726	0	33344	33952	28344
2727	0	33344	33952	28332
2728	0	33336	33944	28317
2729	0	33348	33936	28320
2730	0	33353	33940	28308
2731	0	33336	33944	28316
2732	0	33332	33956	28308
2733	0	33332	33964	28312
2734	0	33344	33952	28304
2735	0	33336	33960	28300
2736	0	33316	33984	28301
2737	0	33312	33992	28308
2738	0	33300	34000	28304
2739	0	33297	33992	28296
2740	0	33288	34008	28272
2741	0	33289	34000	28264
2742	0	33304	34004	28249
2743	0	33296	33992	28248
2744	0	33305	34000	28244
2745	0	33300	34000	28244
2746	0	33292	34012	28236
2747	0	33300	34008	28220
2748	0	33296	34005	28208
2749	0	33296	33996	28216
2750	0	33300	34008	28208
2751	0	33300	34000	28208
2752	0	33304	34000	28224
2753	0	33280	34016	28224
2754	0	33264	34032	28228
2755	0	33260	34028	28222
2756	0	33272	34020	28240
2757	0	33264	34036	28264
2758	0	33244	34032	28256
2759	0	33237	34024	28244
2760	0	33232	34024	28256
2761	0	33220	34020	28269
2762	0	33204	34012	28288
2763	0	33212	33996	28316
2764	0	33220	33981	28312
2765	0	33200	33980	28316
2766	0	33204	33948	28324
2767	0	33196	33936	28348
2768	0	33192	33908	28352
2769	0	33184	33916	28348
2770	0	33184	33924	28352
2771	0	33192	33936	28345
2772	0	33208	33956	28340
2773	0	33216	33956	28337
2774	0	33221	33964	28340
2775	0	33232	33977	28312
2776	0	33240	33956	28300
2777	0	33252	33944	28298
2778	0	33248	33952	28302
2779	0	33252	33956	28303
2780	0	33272	33932	28296
2781	0	33272	33924	28308
2782	0	33296	33916	28300
2783	0	33300	33900	28308
2784	0	33308	33896	28308
2785	0	33304	33880	28308
2786	0	33324	33860	28300
2787	0	33344	33856	28300
2788	0	33344	33848	28312
2789	0	33368	33844	28312
2790	0	33376	33828	28320
2791	0	33368	33832	28300
2792	0	33368	33820	28296
2793	0	33368	33816	28312
2794	0	33380	33813	28316
2795	0	33368	33816	28336
2796	0	33360	33816	28344
2797	0	33372	33824	28342
2798	0	33376	33800	28360
2799	0	33376	33804	28336
2800	0	33388	33784	28340
2801	0	33384	33792	28352
2802	0	33392	33780	28344
2803	0	33384	33772	28336
2804	0	33376	33760	28336
2805	0	33380	33753	28344
2806	0	33388	33760	28356
2807	0	33368	33752	28352
2808	0	33360	33752	28366
2809	0	33360	33740	28360
2810	0	33368	33744	28360
2811	0	33352	33764	28360
2812	0	33368	33752	28360
2813	0	33344	33764	28372
2814	0	33344	33776	28382
2815	0	33328	33780	28380
2816	0	33328	33788	28384
2817	0	33332	33784	28388
2818	0	33316	33785	28407
2819	0	33316	33780	28396
2820	0	33324	33776	28396
2821	0	33324	33784	28405
2822	0	33304	33788	28408
2823	0	33280	33804	28400
2824	0	33268	33813	28384
2825	0	33264	33808	28384
2826	0	33276	33820	28380
2827	0	33280	33816	28384
2828	0	33264	33821	28380
2829	0	33272	33828	28376
2830	0	33280	33824	28388
2831	0	33276	33836	28372
2832	0	33272	33840	28376
2833	0	33280	33832	28372
2834	0	33284	33824	28368
2835	0	33292	33821	28348
2836	0	33308	33814	28340
2837	0	33320	33828	28332
2838	0	33308	33832	28344
2839	0	33316	33828	28340
2840	0	33304	33844	28340
2841	0	33312	33832	28332
2842	0	33308	33848	28328
2843	0	33312	33860	28320
2844	0	33312	33864	28320
2845	0	33312	33860	28312
2846	0	33328	33852	28316
2847	0	33316	33864	28312
2848	0	33312	33872	28328
2849	0	33316	33856	28328
2850	0	33320	33860	28320
2851	0	33308	33852	28328
2852	0	33288	33864	28300
2853	0	33292	33848	28300
2854	0	33292	33856	28312
2855	0	33288	33852	28312
2856	0	33280	33844	28316
2857	0	33276	33832	28304
2858	0	33272	33844	28310
2859	0	33272	33856	28313
2860	0	33280	33856	28313
2861	0	33280	33868	28316
2862	0	33288	33864	28316
2863	0	33292	33860	28312
2864	0	33288	33864	28328
2865	0	33288	33861	28333
2866	0	33293	33848	28342
2867	0	33296	33840	28360
2868	0	33304	33824	28358
2869	0	33304	33800	28388
2870	0	33308	33784	28384
2871	0	33312	33764	28380
2872	0	33312	33744	28388
2873	0	33312	33728	28397
2874	0	33312	33720	28396
2875	0	33304	33696	28388
2876	0	33316	33680	28384
2877	0	33308	33672	28344
2878	0	33324	33644	28332
2879	0	33320	33652	28332
2880	0	33328	33649	28336
2881	0	33328	33644	28320
2882	0	33328	33632	28308
2883	0	33344	33648	28288
2884	0	33352	33644	28296
2885	0	33368	33644	28296
2886	0	33380	33648	28292
2887	0	33384	33660	28297
2888	0	33392	33664	28284
2889	0	33416	33672	28268
2890	0	33416	33668	28268
2891	0	33416	33672	28280
2892	0	33424	33672	28285
2893	0	33452	33661	28268
2894	0	33452	33656	28273
2895	0	33448	33664	28272
2896	0	33452	33664	28256
2897	0	33448	33648	28256
2898	0	33444	33640	28276
2899	0	33436	33628	28264
2900	0	33448	33624	28272
2901	0	33448	33628	28252
2902	0	33448	33628	28260
2903	0	33452	33628	28264
2904	0	33448	33644	28256
2905	0	33452	33660	28268
2906	0	33444	33676	28244
2907	0	33448	33672	28252
2908	0	33436	33688	28244
2909	0	33432	33708	28248
2910	0	33424	33728	28240
2911	0	33184	33496	28316
2912	0	33100	33212	28424
2913	0	33113	33320	28488
2914	0	33064	33464	28488
2915	0	33068	33540	28472
2916	0	33008	33580	28456
2917	0	32976	33552	28500
2918	0	33036	33688	28520
2919	0	33060	33756	28492
2920	0	33076	33824	28460
2921	0	33068	33792	28441
2922	0	33096	33757	28438
2923	0	33128	33724	28412
2924	0	33108	33572	28416
2925	0	33044	33272	28448
2926	0	33112	33295	28460
2927	0	33180	33448	28472
2928	0	33224	33584	28412
2929	0	33256	33676	28348
2930	0	33304	33888	28302
2931	0	33348	34080	28224
2932	0	33380	34220	28164
2933	0	33384	34244	28112
2934	0	33364	34160	28096
2935	0	33352	34068	28068
2936	0	33360	33917	28064
2937	0	33364	33800	28096
2938	0	33380	33728	28096
2939	0	33352	33568	28096
2940	0	33328	33424	28144
2941	0	33328	33352	28196
2942	0	33332	33388	28224
2943	0	33300	33260	28256
2944	0	33304	33308	28286
2945	0	33312	33480	28312
2946	0	33296	33512	28312
2947	0	33264	33516	28316
2948	0	33260	33544	28324
2949	0	33256	33540	28341
2950	0	33264	33576	28336
2951	0	33296	33640	28340
2952	0	33288	33596	28340
2953	0	33368	33812	28300
2954	0	33357	33780	28280
2955	0	33308	33600	28292
2956	0	33316	33572	28308
2957	0	33312	33596	28324
2958	0	33328	33713	28285
2959	0	33264	33480	28300
2960	0	33280	33420	28328
2961	0	33296	33436	28360
2962	0	33332	33528	28353
2963	0	33336	33536	28340
2964	0	33316	33596	28324
2965	0	33304	33640	28312
2966	0	33328	33700	28292
2967	0	33336	33756	28276
2968	0	33324	33704	28252
2969	0	33296	33688	28233
2970	0	33320	33725	28205
2971	0	33296	33638	28192
2972	0	33288	33640	28197
2973	0	33276	33660	28202
2974	0	33284	33692	28188
2975	0	33280	33676	28192
2976	0	33256	33644	28196
2977	0	33272	33601	28208
2978	0	33244	33584	28208
2979	0	33244	33564	28212
2980	0	33240	33548	28212
2981	0	33240	33565	28217
2982	0	33248	33580	28192
2983	0	33272	33624	28180
2984	0	33272	33644	28176
2985	0	33292	33668	28168
2986	0	33308	33684	28156
2987	0	33300	33664	28148
2988	0	33312	33660	28160
2989	0	33336	33684	28144
2990	0	33352	33676	28132
2991	0	33356	33693	28120
2992	0	33368	33688	28108
2993	0	33384	33677	28102
2994	0	33404	33672	28120
2995	0	33424	33656	28096
2996	0	33424	33648	28082
2997	0	33432	33632	28084
2998	0	33440	33612	28092
2999	0	33444	33588	28092
3000	0	33456	33557	28084
3001	0	33464	33528	28084
3002	0	33464	33504	28094
3003	0	33476	33476	28088
3004	0	33476	33472	28088
3005	0	33480	33472	28088
3006	0	33488	33452	28112
3007	0	33492	33457	28104
3008	0	33496	33460	28127
3009	0	33500	33448	28134
3010	0	33496	33464	28128
3011	0	33496	33472	28120
3012	0	33492	33484	28120
3013	0	33504	33496	28144
3014	0	33500	33500	28133
3015	0	33512	33510	28132
3016	0	33512	33528	28112
3017	0	33520	33528	28092
3018	0	33524	33548	28072
3019	0	33520	33556	28080
3020	0	33516	33564	28064
3021	0	33520	33568	28052
3022	0	33520	33592	28064
3023	0	33544	33592	28044
3024	0	33544	33588	28024
3025	0	33528	33592	28032
3026	0	33524	33584	28032
3027	0	33516	33588	28017
3028	0	33520	33580	28000
3029	0	33516	33568	28012
3030	0	33512	33548	28013
3031	0	33504	33548	28040
3032	0	33496	33548	28072
3033	0	33480	33548	28077
3034	0	33480	33521	28088
3035	0	33456	33504	28110
3036	0	33432	33500	28116
3037	0	33424	33500	28136
3038	0	33408	33508	28160
3039	0	33428	33500	28168
3040	0	33421	33496	28172
3041	0	33424	33478	28192
3042	0	33416	33484	28186
3043	0	33408	33480	28172
3044	0	33396	33468	28188
3045	0	33404	33460	28200
3046	0	33412	33440	28188
3047	0	33416	33428	28192
3048	0	33424	33424	28196
3049	0	33416	33424	28204
3050	0	33420	33420	28200
3051	0	33416	33400	28229
3052	0	33408	33412	28233
3053	0	33404	33404	28232
3054	0	33388	33392	28240
3055	0	33320	33504	28266
3056	0	33252	33588	28272
3057	0	33216	33689	28300
3058	0	33192	33712	28288
3059	0	33180	33752	28324
3060	0	33176	33720	28304
3061	0	33160	33652	28308
3062	0	33108	33636	28320
3063	0	33088	33624	28344
3064	0	33088	33548	28385
3065	0	33060	33488	28400
3066	0	33064	33384	28436
3067	0	33092	33285	28440
3068	0	33096	33248	28476
3069	0	33128	33197	28484
3070	0	33160	33148	28480
3071	0	33200	33088	28448
3072	0	33220	33064	28428
3073	0	33232	33080	28418
3074	0	33276	33068	28424
3075	0	33304	33048	28404
3076	0	33328	33072	28380
3077	0	33328	33104	28380
3078	0	33360	33116	28364
3079	0	33384	33136	28352
3080	0	33376	33176	28336
3081	0	33400	33200	28328
3082	0	33404	33228	28320
3083	0	33388	33268	28312
3084	0	33392	33284	28280
3085	0	33416	33276	28264
3086	0	33380	33316	28268
3087	0	33368	33314	28264
3088	0	33348	33340	28272
3089	0	33344	33336	28272
3090	0	33352	33288	28244
3091	0	33344	33300	28244
3092	0	33312	33340	28240
3093	0	33312	33336	28208
3094	0	33296	33340	28188
3095	0	33284	33348	28168
3096	0	33260	33356	28176
3097	0	33268	33348	28164
3098	0	33276	33356	28140
3099	0	33268	33384	28100
3100	0	33264	33404	28084
3101	0	33276	33396	28044
3102	0	33292	33376	28024
3103	0	33288	33356	28020
3104	0	33288	33304	28024
3105	0	33288	33252	28016
3106	0	33284	33184	28040
3107	0	33288	33124	28040
3108	0	33292	33068	28040
3109	0	33312	33021	28060
3110	0	33344	32980	28076
3111	0	33384	32936	28085
3112	0	33424	32925	28096
3113	0	33437	32920	28136
3114	0	33468	32948	28113
3115	0	33465	32961	28112
3116	0	33472	33004	28093
3117	0	33480	33060	28077
3118	0	33488	33100	28064
3119	0	33504	33126	28056
3120	0	33500	33164	28040
3121	0	33488	33208	28032
3122	0	33485	33232	28012
3123	0	33488	33260	27997
3124	0	33472	33280	28000
3125	0	33452	33276	28016
3126	0	33436	33276	28024
3127	0	33424	33260	28009
3128	0	33428	33256	28004
3129	0	33408	33228	28004
3130	0	33388	33204	27992
3131	0	33380	33152	28008
3132	0	33376	33112	28036
3133	0	33368	33072	28068
3134	0	33376	33040	28088
3135	0	33384	33020	28125
3136	0	33392	32992	28152
3137	0	33392	32980	28176
3138	0	33388	32964	28184
3139	0	33404	32952	28192
3140	0	33400	32952	28192
3141	0	33400	32928	28168
3142	0	33392	32928	28176
3143	0	33392	32928	28184
3144	0	33400	32913	28185
3145	0	33392	32912	28180
3146	0	33384	32908	28168
3147	0	33376	32904	28184
3148	0	33376	32908	28208
3149	0	33360	32916	28220
3150	0	33312	32944	28220
3151	0	33280	32968	28208
3152	0	33248	32988	28180
3153	0	33228	32988	28185
3154	0	33244	32992	28164
3155	0	33244	32984	28168
3156	0	33260	32988	28157
3157	0	33200	33028	28164
3158	0	33272	32981	28136
3159	0	33412	32880	28174
3160	0	33424	32888	28208
3161	0	33364	32940	28220
3162	0	33336	32960	28198
3163	0	33372	32957	28204
3164	0	33400	32940	28236
3165	0	33420	32932	28240
3166	0	33384	32980	28256
3167	0	33368	32992	28264
3168	0	33408	32968	28284
3169	0	33424	32996	28318
3170	0	33452	33004	28324
3171	0	33400	33052	28348
3172	0	33388	33064	28340
3173	0	33408	33068	28360
3174	0	33472	33032	28340
3175	0	33420	33064	28360
3176	0	33416	33076	28356
3177	0	33388	33088	28367
3178	0	33364	33124	28316
3179	0	33296	33180	28300
3180	0	33232	33180	28272
3181	0	33312	33156	28237
3182	0	33392	33133	28268
3183	0	33472	33096	28320
3184	0	33472	33088	28344
3185	0	33416	33112	28308
3186	0	33312	33144	28244
3187	0	33308	33120	28204
3188	0	33584	32996	28208
3189	0	33692	32984	28328
3190	0	33584	33064	28384
3191	0	33380	33181	28332
3192	0	33208	33260	28220
3193	0	33196	33252	28172
3194	0	33236	33252	28149
3195	0	33320	33248	28172
3196	0	33472	33176	28204
3197	0	33684	33120	28252
3198	0	33732	33089	28320
3199	0	33704	33080	28272
3200	0	33676	33084	28280
3201	0	33644	33060	28236
3202	0	33648	33056	28232
3203	0	33696	33004	28239
3204	0	33780	32960	28256
3205	0	33764	32968	28272
3206	0	33688	32992	28260
3207	0	33600	33024	28228
3208	0	33552	33040	28204
3209	0	33524	33044	28220
3210	0	33541	33040	28233
3211	0	33556	33044	28248
3212	0	33533	33044	28244
3213	0	33544	33088	28233
3214	0	33556	33076	28196
3215	0	33561	33080	28204
3216	0	33568	33088	28192
3217	0	33584	33096	28168
3218	0	33568	33072	28164
3219	0	33548	33084	28164
3220	0	33508	33096	28120
3221	0	33528	33076	28072
3222	0	33564	33056	28064
3223	0	33576	33040	28068
3224	0	33576	33056	28072
3225	0	33560	33072	28060
3226	0	33544	33088	28045
3227	0	33560	33109	28048
3228	0	33576	33084	28060
3229	0	33584	33100	28061
3230	0	33580	33100	28064
3231	0	33640	33072	28061
3232	0	33688	33036	28088
3233	0	33684	33056	28100
3234	0	33672	33056	28104
3235	0	33672	33076	28096
3236	0	33632	33100	28128
3237	0	33632	33112	28128
3238	0	33664	33100	28148
3239	0	33672	33132	28136
3240	0	33600	33172	28140
3241	0	33576	33204	28132
3242	0	33584	33214	28125
3243	0	33588	33224	28140
3244	0	33564	33248	28144
3245	0	33556	33260	28132
3246	0	33544	33265	28122
3247	0	33556	33252	28104
3248	0	33568	33272	28134
3249	0	33608	33284	28136
3250	0	33600	33332	28112
3251	0	33600	33318	28116
3252	0	33660	33284	28096
3253	0	33692	33276	28100
3254	0	33656	33308	28096
3255	0	33656	33296	28076
3256	0	33652	33276	28068
3257	0	33700	33252	28072
3258	0	33744	33248	28096
3259	0	33724	33232	28120
3260	0	33696	33248	28096
3261	0	33692	33212	28092
3262	0	33693	33176	28088
3263	0	33688	33164	28100
3264	0	33636	33168	28128
3265	0	33664	33140	28084
3266	0	33676	33134	28088
3267	0	33676	33132	28081
3268	0	33696	33120	28100
3269	0	33688	33152	28104
3270	0	33644	33172	28078
3271	0	33648	33136	28060
3272	0	33696	33116	28056
3273	0	33688	33111	28076
3274	0	33728	33096	28092
3275	0	33696	33132	28120
3276	0	33628	33136	28133
3277	0	33684	33096	28100
3278	0	33720	33060	28112
3279	0	33748	33060	28156
3280	0	33728	33060	28192
3281	0	33708	33068	28200
3282	0	33768	33017	28188
3283	0	33800	33012	28216
3284	0	33668	33056	28257
3285	0	33629	33052	28228
3286	0	33664	33028	28208
3287	0	33768	32992	28232
3288	0	33792	32985	28272
3289	0	33748	32980	28308
3290	0	33728	32996	28337
3291	0	33752	32972	28324
3292	0	33756	32990	28301
3293	0	33708	33028	28293
3294	0	33620	33088	28296
3295	0	33704	33060	28268
3296	0	33760	33060	28304
3297	0	33692	33120	28328
3298	0	33740	33093	28284
3299	0	33776	33128	28316
3300	0	33616	33184	28310
3301	0	33580	33128	28204
3302	0	33688	33113	28192
3303	0	33764	33092	28232
3304	0	33744	33104	28261
3305	0	33828	33028	28260
3306	0	33944	32992	28300
3307	0	33976	32980	28376
3308	0	33936	32980	28361
3309	0	33872	32980	28296
3310	0	33888	33004	28312
3311	0	33856	33032	28345
3312	0	33728	33101	28328
3313	0	33629	33116	28270
3314	0	33648	33100	28218
3315	0	33684	33096	28256
3316	0	33720	33080	28276
3317	0	33644	33092	28244
3318	0	33608	33012	28184
3319	0	33668	32956	28212
3320	0	33692	32948	28264
3321	0	33792	32900	28304
3322	0	33800	32904	28316
3323	0	33824	32904	28352
3324	0	33820	32920	28332
3325	0	33856	32906	28313
3326	0	33940	32892	28324
3327	0	33948	32949	28384
3328	0	33796	32976	28388
3329	0	33784	33004	28320
3330	0	33872	33016	28309
3331	0	33792	33020	28336
3332	0	33772	33068	28296
3333	0	33688	33028	28320
3334	0	33856	32960	28280
3335	0	34072	32976	28368
3336	0	34036	32952	28444
3337	0	33988	32976	28432
3338	0	33984	32980	28368
3339	0	33940	32996	28404
3340	0	33952	33016	28360
3341	0	33960	33024	28337
3342	0	33912	32980	28316
3343	0	34016	32996	28312
3344	0	33952	33048	28248
3345	0	34040	32992	28112
3346	0	34032	33060	28197
3347	0	33960	33124	28268
3348	0	33904	33128	28249
3349	0	33880	33140	28268
3350	0	33788	33144	28328
3351	0	33760	33068	28305
3352	0	33812	33084	28328
3353	0	33912	33096	28349
3354	0	33952	33120	28396
3355	0	33952	33112	28420
3356	0	33808	33149	28424
3357	0	33788	33094	28328
3358	0	33824	33148	28300
3359	0	33868	33060	28308
3360	0	33960	33024	28372
3361	0	33928	33040	28396
3362	0	33776	33152	28334
3363	0	33724	33180	28276
3364	0	33701	33182	28280
3365	0	33740	33176	28296
3366	0	33808	33172	28304
3367	0	33804	33164	28336
3368	0	33820	33184	28332
3369	0	33920	33132	28308
3370	0	33944	33212	28284
3371	0	33916	33308	28285
3372	0	33880	33389	28240
3373	0	33948	33388	28193
3374	0	34092	33380	28224
3375	0	34068	33444	28264
3376	0	33976	33448	28216
3377	0	33972	33408	28152
3378	0	34005	33373	28136
3379	0	34056	33360	28168
3380	0	34084	33352	28216
3381	0	34065	33344	28256
3382	0	34062	33320	28252
3383	0	34024	33328	28244
3384	0	33992	33316	28228
3385	0	34012	33292	28228
3386	0	34012	33308	28264
3387	0	33988	33308	28276
3388	0	33984	33300	28272
3389	0	34012	33288	28249
3390	0	34036	33260	28256
3391	0	34056	33312	28260
3392	0	34024	33324	28256
3393	0	34008	33336	28248
3394	0	34012	33336	28236
3395	0	34036	33324	28253
3396	0	34056	33304	28257
3397	0	34056	33296	28256
3398	0	34064	33296	28238
3399	0	34080	33268	28256
3400	0	34084	33264	28265
3401	0	34084	33262	28264
3402	0	34072	33264	28248
3403	0	34048	33260	28244
3404	0	34029	33248	28256
3405	0	34020	33220	28264
3406	0	34016	33216	28260
3407	0	34000	33208	28268
3408	0	34000	33184	28253
3409	0	33992	33184	28264
3410	0	33984	33176	28252
3411	0	33984	33164	28252
3412	0	33992	33148	28264
3413	0	34000	33148	28248
3414	0	33996	33152	28248
3415	0	33984	33160	28256
3416	0	34008	33169	28264
3417	0	34024	33144	28256
3418	0	34024	33120	28240
3419	0	34028	33117	28224
3420	0	34032	33120	28226
3421	0	34028	33124	28234
3422	0	34032	33116	28236
3423	0	34032	33128	28224
3424	0	34056	33132	28212
3425	0	34024	33132	28212
3426	0	34032	33117	28216
3427	0	34040	33114	28228
3428	0	34032	33108	28216
3429	0	34052	33104	28228
3430	0	34048	33104	28252
3431	0	34044	33096	28261
3432	0	34048	33084	28241
3433	0	34045	33072	28248
3434	0	34044	33064	28256
3435	0	34040	33068	28264
3436	0	34040	33056	28264
3437	0	34036	33064	28252
3438	0	34044	33028	28257
3439	0	34040	33040	28236
3440	0	34044	33044	28233
3441	0	34036	33044	28244
3442	0	34036	33048	28248
3443	0	34032	33048	28240
3444	0	34044	33032	28220
3445	0	34040	33024	28224
3446	0	34024	33032	28240
3447	0	34020	33012	28256
3448	0	34016	33020	28236
3449	0	34013	33013	28236
3450	0	34020	33000	28260
3451	0	34012	32976	28254
3452	0	34000	32968	28254
3453	0	34012	32968	28224
3454	0	33992	32944	28224
3455	0	33984	32940	28220
3456	0	33984	32920	28222
3457	0	33984	32912	28228
3458	0	33964	32900	28216
3459	0	33936	32872	28212
3460	0	33912	32840	28204
3461	0	33900	32824	28160
3462	0	33920	32784	28136
3463	0	33948	32776	28105
3464	0	33944	32744	28116
3465	0	33932	32708	28157
3466	0	33880	32692	28204
3467	0	33840	32668	28244
3468	0	33828	32664	28260
3469	0	33768	32640	28280
3470	0	33744	32604	28293
3471	0	33712	32586	28304
3472	0	33656	32628	28292
3473	0	33576	32616	28256
3474	0	33408	32689	28161
3475	0	33316	32784	28056
3476	0	33456	32761	28053
3477	0	33664	32569	28172
3478	0	33864	32431	28284
3479	0	33992	32300	28352
3480	0	34052	32276	28417
3481	0	33924	32308	28432
3482	0	33832	32448	28441
3483	0	33652	32596	28413
3484	0	33488	32648	28340
3485	0	33572	32692	28316
3486	0	33760	32692	28380
3487	0	33760	32704	28500
3488	0	33696	32732	28520
3489	0	33696	32788	28528
3490	0	33680	32815	28528
3491	0	33752	32768	28536
3492	0	33832	32720	28548
3493	0	33928	32669	28584
3494	0	33980	32796	28636
3495	0	33832	32864	28584
3496	0	33852	32920	28492
3497	0	33944	32911	28474
3498	0	34012	32852	28544
3499	0	33952	32808	28576
3500	0	33944	32864	28552
3501	0	33824	32957	28504
3502	0	33888	32980	28408
3503	0	33928	33020	28432
3504	0	33952	33004	28420
3505	0	34048	32984	28417
3506	0	34128	32996	28444
3507	0	34116	32956	28452
3508	0	34080	32944	28437
3509	0	34048	32952	28436
3510	0	34024	33008	28392
3511	0	34020	33024	28360
3512	0	34004	33000	28353
3513	0	34060	32989	28352
3514	0	34040	33044	28368
3515	0	33976	33057	28340
3516	0	34008	33072	28292
3517	0	34040	33005	28296
3518	0	34164	32976	28324
3519	0	34152	32972	28328
3520	0	34088	32992	28312
3521	0	34068	32924	28252
3522	0	34112	32920	28252
3523	0	34092	32952	28229
3524	0	34060	32900	28188
3525	0	34100	32857	28172
3526	0	34152	32860	28168
3527	0	34096	32880	28192
3528	0	34080	32844	28176
3529	0	34092	32844	28172
3530	0	34076	32848	28141
3531	0	34028	32848	28136
3532	0	34024	32836	28125
3533	0	34044	32836	28128
3534	0	34068	32816	28116
3535	0	34072	32824	28125
3536	0	34064	32848	28120
3537	0	34080	32844	28109
3538	0	34096	32836	28092
3539	0	34113	32832	28112
3540	0	34096	32844	28140
3541	0	34104	32840	28160
3542	0	34084	32848	28165
3543	0	34056	32872	28168
3544	0	34020	32860	28160
3545	0	34032	32844	28140
3546	0	34016	32855	28136
3547	0	34036	32840	28136
3548	0	34056	32856	28144
3549	0	34076	32832	28141
3550	0	34072	32832	28152
3551	0	34080	32832	28148
3552	0	34096	32816	28149
3553	0	34116	32830	28144
3554	0	34112	32832	28144
3555	0	34072	32856	28153
3556	0	34056	32864	28144
3557	0	34048	32877	28136
3558	0	34052	32864	28156
3559	0	34064	32856	28156
3560	0	34072	32860	28174
3561	0	34072	32836	28172
3562	0	34045	32848	28168
3563	0	34040	32828	28164
3564	0	34052	32792	28177
3565	0	34056	32780	28196
3566	0	34036	32788	28208
3567	0	34016	32764	28208
3568	0	34020	32760	28236
3569	0	34016	32757	28225
3570	0	34000	32764	28256
3571	0	34008	32762	28248
3572	0	34008	32784	28256
3573	0	34004	32788	28268
3574	0	34024	32796	28301
3575	0	34020	32809	28316
3576	0	34040	32816	28341
3577	0	34032	32836	28352
3578	0	34036	32836	28348
3579	0	34052	32848	28348
3580	0	34024	32862	28358
3581	0	34028	32856	28352
3582	0	34032	32860	28328
3583	0	34032	32856	28328
3584	0	34048	32852	28336
3585	0	34088	32848	28352
3586	0	34136	32828	28364
3587	0	34172	32808	28344
3588	0	34240	32788	28329
3589	0	34344	32734	28316
3590	0	34532	32672	28276
3591	0	35240	32476	28185
3592	0	36412	32144	27996
3593	0	36288	32172	27848
3594	0	35708	32272	27724
3595	0	35128	32240	27676
3596	0	34612	32188	27724
3597	0	34256	31980	27788
3598	0	34060	31960	27764
3599	0	34112	32069	27673
3600	0	33916	32249	27644
3601	0	33788	32416	27706
3602	0	33832	32400	27804
3603	0	33768	32409	27892
3604	0	33656	32429	28028
3605	0	33636	32488	28116
3606	0	33508	32548	28172
3607	0	33448	32512	28224
3608	0	33448	32460	28332
3609	0	33672	32336	28480
3610	0	33668	32292	28585
3611	0	33720	32268	28670
3612	0	33768	32318	28705
3613	0	33848	32332	28664
3614	0	33760	32352	28588
3615	0	33780	32412	28568
3616	0	33816	32420	28584
3617	0	33788	32512	28585
3618	0	33828	32588	28568
3619	0	33888	32608	28516
3620	0	33904	32648	28500
3621	0	34016	32572	28448
3622	0	34136	32584	28444
3623	0	34116	32572	28416
3624	0	34180	32612	28424
3625	0	34208	32536	28416
3626	0	34280	32516	28412
3627	0	34192	32545	28384
3628	0	34092	32556	28388
3629	0	34168	32468	28340
3630	0	34100	32453	28335
3631	0	34068	32458	28348
3632	0	34028	32456	28324
3633	0	34040	32400	28304
3634	0	34036	32372	28328
3635	0	34092	32344	28360
3636	0	34140	32340	28372
3637	0	34108	32304	28360
3638	0	34148	32368	28332
3639	0	34120	32308	28244
3640	0	34128	32348	28240
3641	0	34112	32412	28320
3642	0	34032	32392	28296
3643	0	34000	32376	28289
3644	0	33984	32384	28344
3645	0	34004	32344	28396
3646	0	33960	32348	28388
3647	0	33992	32344	28376
3648	0	33920	32392	28352
3649	0	33872	32372	28364
3650	0	33884	32396	28336
3651	0	33928	32396	28348
3652	0	33888	32440	28368
3653	0	33916	32416	28392
3654	0	33904	32368	28364
3655	0	33948	32408	28360
3656	0	33992	32500	28420
3657	0	33912	32516	28405
3658	0	33896	32556	28448
3659	0	33908	32504	28400
3660	0	33880	32516	28384
3661	0	33952	32485	28396
3662	0	33948	32488	28409
3663	0	33860	32536	28400
3664	0	33988	32500	28417
3665	0	33864	32552	28424
3666	0	33904	32472	28400
3667	0	33976	32464	28396
3668	0	33940	32448	28384
3669	0	33956	32477	28388
3670	0	33888	32528	28392
3671	0	33964	32476	28328
3672	0	34056	32392	28318
3673	0	34016	32380	28304
3674	0	33956	32436	28300
3675	0	33960	32420	28320
3676	0	33900	32372	28300
3677	0	33856	32408	28272
3678	0	33856	32412	28344
3679	0	33776	32444	28356
3680	0	33768	32440	28352
3681	0	33820	32414	28357
3682	0	33790	32480	28408
3683	0	33748	32444	28429
3684	0	33668	32500	28444
3685	0	33672	32488	28416
3686	0	33768	32480	28441
3687	0	33756	32516	28420
3688	0	33836	32496	28404
3689	0	33968	32436	28378
3690	0	34020	32392	28342
3691	0	34000	32428	28304
3692	0	33988	32468	28296
3693	0	33984	32468	28264
3694	0	33972	32460	28260
3695	0	33948	32472	28261
3696	0	33948	32432	28244
3697	0	33984	32416	28236
3698	0	33992	32388	28248
3699	0	33992	32360	28232
3700	0	33976	32340	28224
3701	0	33912	32360	28229
3702	0	33840	32364	28240
3703	0	33816	32348	28256
3704	0	33720	32392	28260
3705	0	33728	32369	28260
3706	0	33732	32380	28272
3707	0	33848	32340	28269
3708	0	33876	32308	28252
3709	0	33992	32244	28236
3710	0	34008	32229	28224
3711	0	33944	32276	28189
3712	0	33928	32252	28204
3713	0	33864	32249	28184
3714	0	33792	32248	28192
3715	0	33760	32233	28172
3716	0	33748	32208	28200
3717	0	33748	32212	28224
3718	0	33712	32231	28216
3719	0	33628	32292	28220
3720	0	33600	32292	28228
3721	0	33588	32298	28264
3722	0	33616	32296	28284
3723	0	33652	32288	28288
3724	0	33652	32308	28296
3725	0	33656	32348	28248
3726	0	33724	32327	28228
3727	0	33773	32296	28200
3728	0	33816	32285	28157
3729	0	33816	32296	28132
3730	0	33832	32284	28084
3731	0	33848	32240	28045
3732	0	33816	32236	28004
3733	0	33824	32204	27992
3734	0	33824	32169	27964
3735	0	33784	32161	27943
3736	0	33760	32157	27932
3737	0	33764	32136	27932
3738	0	33768	32128	27952
3739	0	33752	32116	27961
3740	0	33752	32113	27984
3741	0	33744	32125	28000
3742	0	33740	32108	28008
3743	0	33732	32112	28020
3744	0	33740	32116	28052
3745	0	33704	32168	28072
3746	0	33704	32173	28080
3747	0	33744	32148	28120
3748	0	33728	32173	28128
3749	0	33712	32205	28145
3750	0	33696	32216	28148
3751	0	33660	32253	28154
3752	0	33660	32256	28156
3753	0	33636	32288	28160
3754	0	33632	32284	28180
3755	0	33620	32292	28200
3756	0	33600	32308	28192
3757	0	33576	32332	28212
3758	0	33568	32348	28244
3759	0	33576	32373	28232
3760	0	33552	32380	28236
3761	0	33552	32384	28232
3762	0	33576	32380	28256
3763	0	33588	32388	28253
3764	0	33624	32380	28272
3765	0	33632	32360	28277
3766	0	33624	32372	28284
3767	0	33592	32364	28292
3768	0	33568	32368	28292
3769	0	33552	32360	28284
3770	0	33552	32344	28324
3771	0	33540	32328	28368
3772	0	33520	32336	28380
3773	0	33516	32336	28388
3774	0	33500	32328	28404
3775	0	33508	32320	28404
3776	0	33504	32320	28412
3777	0	33488	32328	28412
3778	0	33480	32336	28433
3779	0	33468	32340	28424
3780	0	33460	32336	28437
3781	0	33464	32328	28452
3782	0	33456	32333	28464
3783	0	33460	32332	28468
3784	0	33452	32324	28448
3785	0	33456	32316	28464
3786	0	33444	32297	28480
3787	0	33440	32288	28472
3788	0	33437	32287	28472
3789	0	33428	32264	28478
3790	0	33412	32260	28473
3791	0	33412	32248	28456
3792	0	33408	32236	28448
3793	0	33404	32224	28440
3794	0	33400	32208	28448
3795	0	33396	32196	28428
3796	0	33412	32172	28412
3797	0	33404	32164	28409
3798	0	33388	32144	28400
3799	0	33384	32137	28400
3800	0	33380	32133	28392
3801	0	33384	32128	28408
3802	0	33381	32108	28409
3803	0	33384	32096	28404
3804	0	33392	32073	28392
3805	0	33384	32084	28405
3806	0	33384	32088	28388
3807	0	33376	32096	28400
3808	0	33380	32109	28380
3809	0	33384	32116	28373
3810	0	33388	32120	28352
3811	0	33412	32116	28344
3812	0	33416	32137	28328
3813	0	33424	32154	28316
3814	0	33416	32184	28324
3815	0	33424	32196	28304
3816	0	33440	32200	28288
3817	0	33452	32212	28264
3818	0	33472	32212	28268
3819	0	33480	32213	28281
3820	0	33480	32220	28276
3821	0	33488	32220	28252
3822	0	33496	32216	28248
3823	0	33496	32236	28248
3824	0	33496	32224	28240
3825	0	33512	32221	28244
3826	0	33516	32221	28232
3827	0	33544	32192	28212
3828	0	33536	32184	28216
3829	0	33553	32176	28216
3830	0	33536	32168	28228
3831	0	33528	32148	28224
3832	0	33520	32144	28208
3833	0	33528	32124	28208
3834	0	33508	32124	28196
3835	0	33504	32112	28212
3836	0	33496	32109	28205
3837	0	33492	32090	28200
3838	0	33492	32088	28192
3839	0	33492	32096	28169
3840	0	33488	32096	28164
3841	0	33512	32104	28160
3842	0	33520	32105	28160
3843	0	33552	32109	28133
3844	0	33576	32124	28125
3845	0	33588	32128	28132
3846	0	33588	32141	28128
3847	0	33616	32148	28112
3848	0	33640	32136	28116
3849	0	33656	32148	28097
3850	0	33660	32140	28096
3851	0	33656	32132	28116
3852	0	33632	32134	28128
3853	0	33632	32120	28128
3854	0	33624	32092	28125
3855	0	33616	32088	28144
3856	0	33604	32076	28152
3857	0	33573	32084	28161
3858	0	33576	32088	28153
3859	0	33568	32096	28175
3860	0	33556	32104	28176
3861	0	33564	32096	28136
3862	0	33568	32104	28148
3863	0	33576	32120	28128
3864	0	33584	32116	28110
3865	0	33572	32092	28124
3866	0	33568	32078	28128
3867	0	33560	32061	28128
3868	0	33556	32068	28120
3869	0	33528	32044	28145
3870	0	33528	32052	28136
3871	0	33512	32037	28136
3872	0	33492	32032	28168
3873	0	33468	32012	28180
3874	0	33456	31996	28224
3875	0	33440	31988	28246
3876	0	33452	31976	28250
3877	0	33440	31956	28260
3878	0	33448	31960	28273
3879	0	33448	31968	28300
3880	0	33448	31972	28265
3881	0	33480	31936	28272
3882	0	33484	31936	28308
3883	0	33480	31956	28320
3884	0	33456	31936	28304
3885	0	33468	31928	28308
3886	0	33492	31917	28324
3887	0	33492	31916	28333
3888	0	33488	31924	28340
3889	0	33480	31928	28344
3890	0	33488	31936	28348
3891	0	33496	31944	28364
3892	0	33488	31924	28364
3893	0	33512	31936	28368
3894	0	33508	31944	28357
3895	0	33508	31940	28332
3896	0	33500	31952	28348
3897	0	33496	31956	28333
3898	0	33496	31944	28352
3899	0	33496	31960	28348
3900	0	33496	31972	28344
3901	0	33489	31964	28316
3902	0	33492	31960	28312
3903	0	33500	31964	28296
3904	0	33500	31932	28276
3905	0	33488	31932	28280
3906	0	33480	31932	28268
3907	0	33492	31952	28272
3908	0	33496	31964	28240
3909	0	33504	31948	28224
3910	0	33492	31952	28201
3911	0	33512	31940	28200
3912	0	33528	31957	28192
3913	0	33528	31964	28184
3914	0	33536	31940	28184
3915	0	33540	31936	28180
3916	0	33540	31949	28157
3917	0	33528	31948	28162
3918	0	33532	31952	28156
3919	0	33540	31944	28152
3920	0	33532	31948	28148
3921	0	33556	31929	28132
3922	0	33572	31912	28132
3923	0	33584	31916	28124
3924	0	33604	31877	28128
3925	0	33592	31868	28144
3926	0	33588	31884	28157
3927	0	33564	31892	28140
3928	0	33564	31880	28129
3929	0	33568	31868	28149
3930	0	33560	31876	28157
3931	0	33544	31868	28164
3932	0	33528	31892	28160
3933	0	33512	31884	28180
3934	0	33508	31876	28176
3935	0	33512	31864	28176
3936	0	33492	31872	28192
3937	0	33480	31868	28196
3938	0	33472	31856	28216
3939	0	33468	31869	28192
3940	0	33464	31880	28208
3941	0	33436	31892	28216
3942	0	33432	31900	28248
3943	0	33432	31912	28238
3944	0	33428	31908	28224
3945	0	33424	31880	28240
3946	0	33420	31880	28232
3947	0	33388	31888	28224
3948	0	33400	31892	28236
3949	0	33388	31896	28252
3950	0	33368	31896	28280
3951	0	33368	31900	28288
3952	0	33368	31912	28304
3953	0	33368	31916	28308
3954	0	33336	31909	28320
3955	0	33320	31900	28328
3956	0	33316	31888	28348
3957	0	33296	31896	28368
3958	0	33297	31888	28380
3959	0	33280	31880	28396
3960	0	33264	31868	28404
3961	0	33248	31868	28398
3962	0	33236	31860	28400
3963	0	33236	31880	28388
3964	0	33232	31900	28397
3965	0	33252	31888	28364
3966	0	33260	31888	28352
3967	0	33252	31896	28356
3968	0	33256	31876	28332
3969	0	33228	31877	28325
3970	0	33244	31832	28292
3971	0	33268	31828	28308
3972	0	33272	31856	28316
3973	0	33264	31840	28320
3974	0	33272	31840	28328
3975	0	33248	31828	28352
3976	0	33264	31832	28352
3977	0	33272	31824	28344
3978	0	33304	31836	28357
3979	0	33320	31884	28368
3980	0	33308	31900	28372
3981	0	33344	31896	28368
3982	0	33380	31860	28369
3983	0	33412	31856	28349
3984	0	33424	31860	28349
3985	0	33440	31860	28340
3986	0	33444	31849	28340
3987	0	33448	31864	28328
3988	0	33456	31860	28328
3989	0	33440	31844	28308
3990	0	33424	31864	28296
3991	0	33412	31888	28280
3992	0	33408	31920	28252
3993	0	33404	31903	28204
3994	0	33401	31856	28188
3995	0	33400	31844	28188
3996	0	33400	31840	28188
3997	0	33372	31816	28172
3998	0	33336	31800	28184
3999	0	33320	31816	28180
4000	0	33340	31792	28152
4001	0	33340	31756	28156
4002	0	33340	31764	28156
4003	0	33336	31768	28152
4004	0	33380	31796	28149
4005	0	33400	31800	28128
4006	0	33420	31784	28132
4007	0	33444	31804	28108
4008	0	33468	31800	28068
4009	0	33480	31785	28044
4010	0	33464	31800	28044
4011	0	33448	31808	28028
4012	0	33408	31804	28028
4013	0	33380	31784	28008
4014	0	33356	31768	28000
4015	0	33336	31768	28008
4016	0	33328	31756	28044
4017	0	33300	31732	28057
4018	0	33264	31704	28081
4019	0	33248	31696	28064
4020	0	33232	31692	28080
4021	0	33208	31688	28086
4022	0	33216	31696	28094
4023	0	33208	31692	28104
4024	0	33208	31696	28104
4025	0	33225	31716	28116
4026	0	33208	31720	28125
4027	0	33200	31729	28124
4028	0	33208	31716	28136
4029	0	33224	31724	28134
4030	0	33236	31724	28164
4031	0	33236	31716	28149
4032	0	33224	31708	28160
4033	0	33224	31740	28180
4034	0	33236	31776	28193
4035	0	33232	31796	28192
4036	0	33228	31772	28185
4037	0	33264	31784	28208
4038	0	33220	31800	28232
4039	0	33252	31816	28252
4040	0	33212	31793	28248
4041	0	33184	31792	28304
4042	0	33148	31764	28304
4043	0	33160	31772	28284
4044	0	33096	31776	28248
4045	0	33084	31768	28240
4046	0	33044	31732	28232
4047	0	33028	31728	28248
4048	0	33016	31720	28256
4049	0	33016	31712	28257
4050	0	33060	31736	28216
4051	0	33112	31769	28220
4052	0	33148	31764	28232
4053	0	33168	31772	28208
4054	0	33196	31797	28212
4055	0	33232	31812	28205
4056	0	33272	31804	28208
4057	0	33316	31820	28208
4058	0	33304	31820	28224
4059	0	33304	31824	28224
4060	0	33320	31834	28224
4061	0	33340	31844	28232
4062	0	33320	31856	28228
4063	0	33316	31844	28237
4064	0	33300	31868	28260
4065	0	33292	31872	28264
4066	0	33328	31856	28272
4067	0	33310	31828	28281
4068	0	33308	31808	28292
4069	0	33284	31800	28292
4070	0	33256	31792	28268
4071	0	33236	31796	28272
4072	0	33248	31805	28260
4073	0	33256	31776	28252
4074	0	33264	31780	28236
4075	0	33240	31756	28252
4076	0	33261	31780	28272
4077	0	33272	31764	28268
4078	0	33245	31752	28240
4079	0	33248	31756	28240
4080	0	33244	31736	28240
4081	0	33256	31724	28236
4082	0	33280	31740	28252
4083	0	33304	31760	28260
4084	0	33328	31736	28256
4085	0	33320	31748	28260
4086	0	33312	31756	28256
4087	0	33352	31769	28255
4088	0	33337	31756	28244
4089	0	33308	31748	28240
4090	0	33316	31748	28244
4091	0	33340	31760	28260
4092	0	33352	31764	28244
4093	0	33352	31744	28252
4094	0	33340	31744	28300
4095	0	33328	31720	28292
4096	0	33344	31728	28288
4097	0	33385	31736	28296
4098	0	33376	31720	28300
4099	0	33384	31724	28302
4100	0	33388	31708	28289
4101	0	33336	31716	28280
4102	0	33352	31696	28280
4103	0	33320	31696	28280
4104	0	33344	31696	28288
4105	0	33348	31680	28293
4106	0	33348	31692	28286
4107	0	33340	31684	28244
4108	0	33309	31688	28252
4109	0	33352	31676	28245
4110	0	33376	31664	28200
4111	0	33320	31688	28192
4112	0	33300	31680	28168
4113	0	33340	31652	28152
4114	0	33344	31644	28100
4115	0	33384	31640	28072
4116	0	33408	31644	28052
4117	0	33436	31624	28054
4118	0	33484	31624	28040
4119	0	33536	31620	28036
4120	0	33568	31632	28060
4121	0	33588	31644	28044
4122	0	33628	31668	28052
4123	0	33624	31672	28056
4124	0	33624	31688	28068
4125	0	33656	31684	28056
4126	0	33652	31704	28076
4127	0	33630	31712	28112
4128	0	33660	31684	28121
4129	0	33664	31688	28116
4130	0	33688	31696	28109
4131	0	33728	31692	28128
4132	0	33764	31712	28153
4133	0	33792	31704	28144
4134	0	33752	31720	28140
4135	0	33768	31720	28180
4136	0	33804	31740	28180
4137	0	33760	31752	28172
4138	0	33656	31756	28140
4139	0	33600	31748	28132
4140	0	33512	31729	28112
4141	0	33468	31704	28084
4142	0	33432	31680	28108
4143	0	33400	31668	28156
4144	0	33396	31648	28216
4145	0	33404	31624	28269
4146	0	33412	31608	28313
4147	0	33400	31616	28337
4148	0	33412	31588	28376
4149	0	33408	31614	28336
4150	0	33408	31628	28286
4151	0	33388	31640	28296
4152	0	33384	31632	28318
4153	0	33416	31624	28256
4154	0	33368	31632	28192
4155	0	33332	31612	28216
4156	0	33300	31600	28216
4157	0	33320	31576	28313
4158	0	33328	31564	28348
4159	0	33324	31540	28408
4160	0	33312	31540	28512
4161	0	33280	31452	28716
4162	0	33248	31500	28824
4163	0	33324	31564	28624
4164	0	33428	31620	28412
4165	0	33520	31652	28328
4166	0	33568	31656	28358
4167	0	33584	31688	28352
4168	0	33609	31696	28332
4169	0	33612	31684	28320
4170	0	33592	31704	28285
4171	0	33576	31704	28296
4172	0	33560	31709	28292
4173	0	33536	31708	28268
4174	0	33540	31684	28276
4175	0	33544	31672	28276
4176	0	33544	31652	28236
4177	0	33544	31636	28244
4178	0	33540	31624	28253
4179	0	33508	31624	28265
4180	0	33500	31596	28280
4181	0	33520	31604	28264
4182	0	33536	31620	28216
4183	0	33576	31592	28193
4184	0	33592	31584	28224
4185	0	33600	31600	28240
4186	0	33616	31608	28228
4187	0	33624	31608	28254
4188	0	33632	31616	28300
4189	0	33644	31640	28320
4190	0	33652	31628	28360
4191	0	33680	31672	28352
4192	0	33752	31692	28336
4193	0	33788	31684	28396
4194	0	33800	31696	28432
4195	0	33816	31697	28460
4196	0	33816	31732	28492
4197	0	33821	31744	28532
4198	0	33812	31748	28556
4199	0	33792	31753	28568
4200	0	33796	31764	28572
4201	0	33808	31776	28508
4202	0	33804	31737	28496
4203	0	33780	31752	28508
4204	0	33744	31744	28520
4205	0	33704	31741	28512
4206	0	33684	31725	28497
4207	0	33652	31748	28452
4208	0	33616	31740	28404
4209	0	33600	31712	28392
4210	0	33564	31696	28396
4211	0	33528	31696	28401
4212	0	33516	31716	28352
4213	0	33540	31728	28293
4214	0	33548	31725	28241
4215	0	33560	31688	28240
4216	0	33540	31716	28232
4217	0	33552	31744	28252
4218	0	33564	31736	28272
4219	0	33552	31740	28285
4220	0	33572	31757	28272
4221	0	33564	31744	28276
4222	0	33552	31734	28280
4223	0	33520	31752	28308
4224	0	33504	31752	28332
4225	0	33500	31752	28312
4226	0	33484	31776	28288
4227	0	33480	31776	28284
4228	0	33456	31748	28320
4229	0	33392	31768	28377
4230	0	33384	31768	28368
4231	0	33324	31732	28413
4232	0	33304	31760	28381
4233	0	33272	31764	28348
4234	0	33252	31737	28328
4235	0	33216	31732	28340
4236	0	33144	31692	28400
4237	0	33080	31696	28440
4238	0	33080	31720	28344
4239	0	33120	31720	28252
4240	0	33124	31692	28212
4241	0	33120	31688	28208
4242	0	33096	31680	28256
4243	0	33104	31692	28256
4244	0	33144	31700	28196
4245	0	33168	31732	28132
4246	0	33168	31720	28137
4247	0	33160	31716	28168
4248	0	33148	31720	28173
4249	0	33144	31724	28156
4250	0	33156	31744	28125
4251	0	33188	31760	28100
4252	0	33184	31776	28065
4253	0	33188	31776	28072
4254	0	33216	31808	28060
4255	0	33224	31852	28064
4256	0	33248	31852	28069
4257	0	33264	31868	28077
4258	0	33280	31888	28120
4259	0	33288	31881	28135
4260	0	33312	31872	28184
4261	0	33316	31884	28200
4262	0	33328	31864	28200
4263	0	33337	31864	28201
4264	0	33344	31860	28221
4265	0	33348	31860	28216
4266	0	33332	31872	28228
4267	0	33340	31870	28232
4268	0	33324	31900	28232
4269	0	33308	31920	28216
4270	0	33308	31908	28200
4271	0	33304	31896	28193
4272	0	33304	31868	28164
4273	0	33290	31876	28132
4274	0	33272	31868	28116
4275	0	33260	31864	28084
4276	0	33236	31852	28040
4277	0	33208	31856	28004
4278	0	33180	31840	27996
4279	0	33172	31837	27960
4280	0	33156	31841	27936
4281	0	33136	31844	27932
4282	0	33136	31832	27932
4283	0	33120	31840	27933
4284	0	33116	31837	27932
4285	0	33104	31844	27944
4286	0	33096	31852	27956
4287	0	33096	31824	27972
4288	0	33080	31848	27960
4289	0	33144	31785	27964
4290	0	33128	31800	27960
4291	0	33104	31816	27992
4292	0	33224	31588	27964
4293	0	34220	30056	27760
4294	0	33716	31388	27896
4295	0	33324	32100	28189
4296	0	33216	32196	28204
4297	0	33176	32092	28072
4298	0	33252	31952	27976
4299	0	33304	31893	27944
4300	0	33320	31868	27972
4301	0	33328	31900	27980
4302	0	33324	31812	27992
4303	0	33332	31744	27972
4304	0	33320	31808	27968
4305	0	33264	31820	27944
4306	0	33232	31836	27912
4307	0	33224	31876	27921
4308	0	33224	31881	27924
4309	0	33224	31864	27964
4310	0	33248	31833	28005
4311	0	33268	31760	28068
4312	0	33297	31828	28152
4313	0	33296	31868	28212
4314	0	33304	31912	28272
4315	0	33308	31856	28317
4316	0	33340	31800	28356
4317	0	33360	31860	28420
4318	0	33372	31900	28452
4319	0	33388	31776	28488
4320	0	33392	31901	28476
4321	0	33400	31940	28473
4322	0	33400	31912	28464
4323	0	33400	31952	28464
4324	0	33408	31864	28456
4325	0	33416	31852	28444
4326	0	33408	31912	28432
4327	0	33416	31908	28408
4328	0	33400	31876	28372
4329	0	33396	31868	28372
4330	0	33388	31900	28348
4331	0	33400	31848	28320
4332	0	33404	31872	28300
4333	0	33409	31804	28273
4334	0	33424	31720	28256
4335	0	33416	31832	28252
4336	0	33392	31964	28248
4337	0	33384	31820	28260
4338	0	33392	31780	28272
4339	0	33392	31852	28260
4340	0	33389	31768	28276
4341	0	33380	31737	28264
4342	0	33352	31852	28253
4343	0	33344	31712	28276
4344	0	33356	31764	28256
4345	0	33364	31828	28254
4346	0	33376	31832	28268
4347	0	33432	31732	28284
4348	0	33472	31780	28276
4349	0	33520	31844	28280
4350	0	33548	31837	28297
4351	0	33568	31796	28316
4352	0	33580	31780	28320
4353	0	33592	31752	28320
4354	0	33568	31877	28316
4355	0	33544	31844	28316
4356	0	33528	31764	28304
4357	0	33512	31748	28292
4358	0	33484	31736	28264
4359	0	33452	31688	28248
4360	0	33400	31840	28216
4361	0	33348	31756	28216
4362	0	33328	31692	28184
4363	0	33296	31665	28152
4364	0	33256	31812	28096
4365	0	33232	31608	28080
4366	0	33216	31672	28008
4367	0	33200	31696	27960
4368	0	33204	31573	27928
4369	0	33208	31608	27892
4370	0	33200	31685	27892
4371	0	33212	31588	27913
4372	0	33216	31668	27888
4373	0	33233	31584	27924
4374	0	33264	31576	27934
4375	0	33268	31708	27976
4376	0	33304	31700	28032
4377	0	33296	31712	28064
4378	0	33344	31560	28120
4379	0	33352	31704	28136
4380	0	33344	31780	28176
4381	0	33376	31632	28228
4382	0	33392	31732	28236
4383	0	33428	31685	28296
4384	0	33420	31713	28316
4385	0	33436	31688	28336
4386	0	33440	31700	28348
4387	0	33424	31752	28384
4388	0	33404	31736	28396
4389	0	33384	31712	28388
4390	0	33388	31751	28387
4391	0	33364	31740	28368
4392	0	33328	31728	28336
4393	0	33320	31680	28312
4394	0	33288	31676	28308
4395	0	33260	31629	28300
4396	0	33224	31652	28272
4397	0	33212	31644	28272
4398	0	33160	31608	28268
4399	0	33136	31664	28248
4400	0	33092	31676	28256
4401	0	33052	31688	28280
4402	0	33032	31680	28276
4403	0	33016	31708	28276
4404	0	33008	31678	28280
4405	0	33000	31728	28264
4406	0	33008	31705	28272
4407	0	33000	31727	28280
4408	0	33008	31732	28296
4409	0	33012	31752	28312
4410	0	33024	31764	28320
4411	0	33008	31780	28324
4412	0	33024	31776	28333
4413	0	33028	31772	28316
4414	0	33036	31776	28304
4415	0	33048	31756	28304
4416	0	33056	31732	28304
4417	0	33056	31732	28280
4418	0	33044	31724	28264
4419	0	33044	31720	28244
4420	0	33036	31716	28224
4421	0	33040	31716	28222
4422	0	33040	31708	28201
4423	0	33048	31712	28188
4424	0	33060	31732	28156
4425	0	33076	31708	28128
4426	0	33088	31700	28113
4427	0	33088	31708	28108
4428	0	33088	31700	28136
4429	0	33104	31680	28152
4430	0	33128	31672	28156
4431	0	33129	31677	28148
4432	0	33128	31676	28140
4433	0	33136	31677	28140
4434	0	33132	31678	28140
4435	0	33128	31672	28120
4436	0	33136	31676	28097
4437	0	33128	31672	28076
4438	0	33144	31660	28064
4439	0	33144	31652	28080
4440	0	33152	31660	28080
4441	0	33148	31660	28084
4442	0	33160	31660	28076
4443	0	33164	31672	28072
4444	0	33156	31684	28076
4445	0	33148	31680	28100
4446	0	33156	31684	28120
4447	0	33152	31688	28132
4448	0	33156	31696	28156
4449	0	33176	31692	28180
4450	0	33173	31712	28196
4451	0	33184	31724	28212
4452	0	33180	31732	28244
4453	0	33176	31744	28292
4454	0	33156	31768	28292
4455	0	33156	31776	28340
4456	0	33148	31774	28368
4457	0	33128	31784	28380
4458	0	33104	31792	28376
4459	0	33084	31792	28388
4460	0	33072	31792	28408
4461	0	33040	31797	28404
4462	0	33012	31805	28392
4463	0	32980	31792	28388
4464	0	32944	31804	28368
4465	0	32932	31804	28338
4466	0	32916	31796	28316
4467	0	32880	31780	28288
4468	0	32872	31753	28264
4469	0	32840	31764	28245
4470	0	32820	31748	28220
4471	0	32816	31734	28193
4472	0	32800	31716	28189
4473	0	32800	31716	28168
4474	0	32800	31724	28168
4475	0	32796	31712	28176
4476	0	32800	31712	28191
4477	0	32824	31716	28204
4478	0	32816	31708	28248
4479	0	32808	31716	28268
4480	0	32816	31724	28296
4481	0	32816	31736	28324
4482	0	32824	31756	28344
4483	0	32824	31776	28380
4484	0	32852	31798	28412
4485	0	32864	31796	28448
4486	0	32876	31812	28480
4487	0	32896	31816	28508
4488	0	32908	31822	28508
4489	0	32920	31838	28533
4490	0	32928	31830	28532
4491	0	32924	31817	28540
4492	0	32904	31824	28524
4493	0	32892	31832	28496
4494	0	32880	31816	28464
4495	0	32864	31820	28432
4496	0	32864	31816	28424
4497	0	32852	31804	28404
4498	0	32848	31792	28392
4499	0	32832	31800	28373
4500	0	32836	31784	28348
4501	0	32824	31792	28348
4502	0	32816	31776	28322
4503	0	32820	31772	28286
4504	0	32812	31756	28264
4505	0	32804	31760	28256
4506	0	32812	31749	28224
4507	0	32812	31736	28188
4508	0	32820	31740	28168
4509	0	32816	31736	28168
4510	0	32816	31720	28156
4511	0	32824	31724	28132
4512	0	32824	31724	28097
4513	0	32808	31724	28108
4514	0	32800	31716	28108
4515	0	32796	31716	28088
4516	0	32792	31716	28068
4517	0	32776	31709	28060
4518	0	32780	31692	28048
4519	0	32760	31696	28036
4520	0	32768	31680	28016
4521	0	32768	31684	28024
4522	0	32772	31680	28004
4523	0	32768	31692	28000
4524	0	32752	31700	28000
4525	0	32752	31700	28016
4526	0	32756	31712	28048
4527	0	32748	31720	28068
4528	0	32756	31732	28084
4529	0	32752	31744	28128
4530	0	32760	31744	28160
4531	0	32748	31766	28160
4532	0	32756	31776	28188
4533	0	32752	31792	28220
4534	0	32756	31784	28241
4535	0	32764	31792	28280
4536	0	32768	31822	28288
4537	0	32768	31812	28288
4538	0	32764	31800	28304
4539	0	32781	31788	28264
4540	0	32768	31800	28248
4541	0	32760	31788	28232
4542	0	32752	31788	28200
4543	0	32736	31776	28168
4544	0	32736	31748	28144
4545	0	32752	31740	28108
4546	0	32740	31750	28080
4547	0	32748	31736	28064
4548	0	32760	31740	28056
4549	0	32784	31748	28061
4550	0	32784	31740	28080
4551	0	32792	31748	28072
4552	0	32820	31752	28120
4553	0	32832	31772	28128
4554	0	32840	31776	28152
4555	0	32836	31785	28157
4556	0	32844	31808	28196
4557	0	32868	31820	28238
4558	0	32864	31832	28268
4559	0	32880	31852	28312
4560	0	32884	31860	28304
4561	0	32896	31880	28324
4562	0	32892	31884	28352
4563	0	32912	31880	28372
4564	0	32912	31876	28392
4565	0	32904	31866	28416
4566	0	32916	31852	28453
4567	0	32920	31864	28456
4568	0	32916	31876	28464
4569	0	32912	31860	28472
4570	0	32912	31852	28468
4571	0	32920	31840	28456
4572	0	32908	31832	28436
4573	0	32912	31832	28416
4574	0	32908	31836	28376
4575	0	32912	31820	28332
4576	0	32904	31806	28300
4577	0	32906	31790	28280
4578	0	32896	31786	28264
4579	0	32880	31800	28224
4580	0	32892	31764	28220
4581	0	32896	31761	28216
4582	0	32900	31760	28212
4583	0	32912	31752	28192
4584	0	32904	31772	28160
4585	0	32916	31776	28160
4586	0	32920	31768	28164
4587	0	32928	31776	28165
4588	0	32928	31772	28164
4589	0	32924	31776	28156
4590	0	32912	31768	28160
4591	0	32912	31756	28164
4592	0	32912	31752	28144
4593	0	32904	31752	28110
4594	0	32896	31752	28098
4595	0	32888	31740	28076
4596	0	32888	31725	28060
4597	0	32884	31732	28036
4598	0	32868	31756	28032
4599	0	32872	31744	28024
4600	0	32892	31752	28032
4601	0	32908	31752	28040
4602	0	32908	31748	28040
4603	0	32904	31760	28053
4604	0	32916	31756	28057
4605	0	32908	31764	28068
4606	0	32916	31764	28076
4607	0	32920	31772	28104
4608	0	32928	31790	28112
4609	0	32928	31820	28100
4610	0	32937	31796	28104
4611	0	32948	31820	28120
4612	0	32960	31804	28104
4613	0	32964	31812	28112
4614	0	32972	31818	28108
4615	0	32964	31820	28120
4616	0	32940	31809	28128
4617	0	32912	31804	28128
4618	0	32896	31796	28108
4619	0	32880	31788	28092
4620	0	32864	31792	28068
4621	0	32848	31796	28036
4622	0	32836	31793	28024
4623	0	32832	31780	28004
4624	0	32832	31788	27976
4625	0	32840	31784	27956
4626	0	32844	31780	27936
4627	0	32848	31784	27916
4628	0	32864	31784	27924
4629	0	32880	31796	27936
4630	0	32888	31796	27928
4631	0	32892	31804	27940
4632	0	32896	31796	27968
4633	0	32896	31808	27964
4634	0	32904	31808	27988
4635	0	32904	31808	28004
4636	0	32896	31788	27988
4637	0	32896	31793	27992
4638	0	32892	31804	27981
4639	0	32904	31808	27976
4640	0	32924	31812	27984
4641	0	32920	31836	27996
4642	0	32936	31836	27996
4643	0	32958	31832	28000
4644	0	32980	31840	27996
4645	0	33000	31864	28012
4646	0	33028	31852	28040
4647	0	33036	31876	28064
4648	0	33056	31892	28116
4649	0	33060	31901	28200
4650	0	33076	31904	28224
4651	0	33080	31912	28317
4652	0	33096	31920	28356
4653	0	33108	31932	28416
4654	0	33112	31932	28476
4655	0	33137	31948	28540
4656	0	33164	31952	28592
4657	0	33176	31956	28584
4658	0	33188	31952	28628
4659	0	33216	31948	28664
4660	0	33240	31944	28672
4661	0	33256	31940	28656
4662	0	33264	31941	28644
4663	0	33288	31935	28626
4664	0	33288	31944	28585
4665	0	33288	31924	28542
4666	0	33280	31916	28480
4667	0	33276	31908	28416
4668	0	33272	31876	28344
4669	0	33276	31868	28288
4670	0	33256	31840	28236
4671	0	33252	31816	28168
4672	0	33224	31808	28096
4673	0	33216	31780	28056
4674	0	33184	31776	28040
4675	0	33148	31776	28030
4676	0	33116	31768	28008
4677	0	33088	31760	28000
4678	0	33060	31768	27992
4679	0	33028	31776	27976
4680	0	33016	31784	27972
4681	0	33000	31796	27984
4682	0	33008	31801	28016
4683	0	33008	31808	28028
4684	0	33024	31821	28048
4685	0	33036	31828	28072
4686	0	33049	31836	28096
4687	0	33056	31852	28113
4688	0	33056	31860	28132
4689	0	33064	31872	28172
4690	0	33064	31892	28188
4691	0	33060	31892	28204
4692	0	33056	31924	28233
4693	0	33040	31933	28264
4694	0	33040	31940	28280
4695	0	33032	31940	28284
4696	0	33016	31936	28272
4697	0	32992	31928	28268
4698	0	32984	31932	28252
4699	0	32956	31936	28216
4700	0	32944	31948	28212
4701	0	32932	31949	28184
4702	0	32916	31960	28185
4703	0	32904	31968	28189
4704	0	32896	31964	28216
4705	0	32896	31968	28192
4706	0	32888	31968	28184
4707	0	32876	31969	28181
4708	0	32864	31972	28197
4709	0	32848	31968	28190
4710	0	32820	31972	28188
4711	0	32824	31967	28192
4712	0	32816	31972	28224
4713	0	32816	31988	28208
4714	0	32808	31988	28208
4715	0	32792	31996	28212
4716	0	32800	31996	28204
4717	0	32804	32000	28204
4718	0	32800	32016	28200
4719	0	32792	32012	28212
4720	0	32796	32004	28185
4721	0	32788	32004	28184
4722	0	32788	32000	28184
4723	0	32793	31996	28184
4724	0	32808	32004	28176
4725	0	32800	31997	28172
4726	0	32804	31992	28168
4727	0	32804	32004	28160
4728	0	32800	32000	28140
4729	0	32772	31997	28125
4730	0	32760	31992	28125
4731	0	32732	31990	28112
4732	0	32708	31996	28108
4733	0	32704	31992	28088
4734	0	32680	31984	28065
4735	0	32656	31980	28036
4736	0	32630	31976	28005
4737	0	32592	31988	28005
4738	0	32584	31969	27972
4739	0	32568	31968	27964
4740	0	32548	31976	27936
4741	0	32552	31984	27916
4742	0	32552	31968	27884
4743	0	32544	31973	27848
4744	0	32548	31972	27828
4745	0	32576	31964	27812
4746	0	32580	31972	27812
4747	0	32592	31976	27820
4748	0	32620	31980	27852
4749	0	32644	31976	27908
4750	0	32656	31992	27984
4751	0	32680	32005	28052
4752	0	32708	32028	28127
4753	0	32736	32044	28224
4754	0	32768	32072	28300
4755	0	32785	32096	28372
4756	0	32824	32096	28444
4757	0	32864	32120	28512
4758	0	32904	32120	28608
4759	0	32936	32140	28680
4760	0	32968	32156	28732
4761	0	33008	32176	28752
4762	0	33048	32173	28792
4763	0	33065	32174	28808
4764	0	33104	32184	28813
4765	0	33116	32188	28820
4766	0	33140	32172	28824
4767	0	33160	32168	28810
4768	0	33176	32164	28780
4769	0	33196	32153	28740
4770	0	33204	32140	28696
4771	0	33208	32126	28649
4772	0	33204	32112	28606
4773	0	33188	32111	28528
4774	0	33172	32093	28484
4775	0	33148	32076	28448
4776	0	33116	32064	28380
4777	0	33080	32044	28320
4778	0	33044	32032	28288
4779	0	33020	32024	28248
4780	0	32980	32024	28213
4781	0	32952	32008	28200
4782	0	32944	32001	28216
4783	0	32924	32017	28188
4784	0	32920	32022	28184
4785	0	32904	32020	28180
4786	0	32888	32028	28176
4787	0	32880	32033	28184
4788	0	32864	32024	28208
4789	0	32856	32048	28188
4790	0	32864	32056	28192
4791	0	32880	32064	28184
4792	0	32864	32080	28188
4793	0	32840	32096	28200
4794	0	32845	32104	28196
4795	0	32848	32108	28184
4796	0	32840	32120	28191
4797	0	32832	32148	28205
4798	0	32816	32141	28216
4799	0	32816	32148	28228
4800	0	32816	32132	28232
4801	0	32820	32132	28244
4802	0	32812	32124	28228
4803	0	32804	32116	28220
4804	0	32797	32112	28213
4805	0	32792	32096	28196
4806	0	32780	32084	28172
4807	0	32768	32076	28150
4808	0	32760	32072	28112
4809	0	32760	32068	28093
4810	0	32764	32076	28076
4811	0	32768	32080	28069
4812	0	32784	32077	28044
4813	0	32800	32084	28033
4814	0	32808	32077	28036
4815	0	32808	32080	28034
4816	0	32816	32096	28053
4817	0	32510	31520	28441
4818	0	31988	31052	29596
4819	0	31660	31568	29824
4820	0	31808	32152	29488
