# OpenSignals Text File Format
# {"00:07:80:4D:2E:5B":{"sensor":["gACCx","gACCy","gACCz"],"device name":"00:07:80:4D:2E:5B","column":["nSeq","DI","gACCx","gACCy","gACCz"],"sync interval":2,"time":"05:30:59","comments":"","keywords":"","device connection":"BTH00:07:80:4D:2E:5B","channels":[1,2,3],"date":"2024-10-17","mode":0,"digital IO":[0,1],"firmware version":775,"device":"biosignalsplux","position":0,"sampling rate":1000,"label":["gACCx","gACCy","gACCz"],"resolution":[16,16,16],"special":[{},{},{}],"sleeve color":["UNKNOWN","UNKNOWN","UNKNOWN"]}}
# EndOfHeader
0	0	32080	32060	28194
1	0	32076	32057	28204
2	0	32092	32052	28216
3	0	32088	32044	28244
4	0	32096	32040	28252
5	0	32104	32050	28240
6	0	32112	32052	28244
7	0	32124	32052	28256
8	0	32124	32056	28248
9	0	32152	32058	28248
10	0	32176	32044	28252
11	0	32184	32053	28280
12	0	32184	32052	28284
13	0	32200	32048	28288
14	0	32208	32040	28308
15	0	32200	32037	28301
16	0	32208	32036	28318
17	0	32208	32032	28304
18	0	32224	32048	28308
19	0	32216	32048	28312
20	0	32192	32048	28309
21	0	32176	32072	28316
22	0	32157	32064	28324
23	0	32160	32056	28308
24	0	32160	32048	28288
25	0	32160	32044	28288
26	0	32148	32048	28284
27	0	32148	32048	28280
28	0	32148	32044	28273
29	0	32136	32056	28253
30	0	32128	32057	28260
31	0	32124	32060	28272
32	0	32108	32064	28256
33	0	32104	32068	28268
34	0	32116	32064	28260
35	0	32120	32061	28280
36	0	32112	32056	28273
37	0	32124	32064	28280
38	0	32132	32053	28284
39	0	32124	32058	28288
40	0	32120	32056	28304
41	0	32124	32052	28320
42	0	32112	32060	28325
43	0	32108	32060	28332
44	0	32092	32056	28348
45	0	32096	32060	28340
46	0	32096	32062	28344
47	0	32074	32060	28352
48	0	32064	32060	28328
49	0	32064	32068	28324
50	0	32072	32048	28333
51	0	32052	32053	28328
52	0	32052	32068	28324
53	0	32040	32068	28302
54	0	32036	32068	28288
55	0	32056	32054	28276
56	0	32064	32048	28296
57	0	32076	32032	28304
58	0	32076	32036	28304
59	0	32092	32040	28296
60	0	32104	32040	28302
61	0	32104	32044	28285
62	0	32108	32044	28272
63	0	32121	32048	28280
64	0	32124	32056	28276
65	0	32137	32044	28284
66	0	32156	32040	28276
67	0	32152	32048	28280
68	0	32144	32048	28260
69	0	32152	32044	28260
70	0	32164	32055	28269
71	0	32168	32048	28276
72	0	32168	32032	28252
73	0	32160	32036	28260
74	0	32152	32044	28260
75	0	32136	32044	28260
76	0	32136	32036	28272
77	0	32120	32044	28272
78	0	32124	32056	28270
79	0	32112	32060	28264
80	0	32088	32056	28252
81	0	32084	32060	28240
82	0	32084	32048	28224
83	0	32076	32060	28220
84	0	32084	32041	28220
85	0	32092	32044	28225
86	0	32072	32052	28244
87	0	32088	32044	28228
88	0	32088	32064	28224
89	0	32096	32054	28232
90	0	32092	32064	28220
91	0	32116	32064	28236
92	0	32112	32076	28236
93	0	32124	32072	28232
94	0	32144	32072	28208
95	0	32140	32080	28204
96	0	32152	32084	28216
97	0	32180	32076	28218
98	0	32184	32076	28232
99	0	32161	32080	28221
100	0	32152	32092	28204
101	0	32168	32076	28216
102	0	32176	32084	28216
103	0	32184	32084	28220
104	0	32184	32076	28232
105	0	32168	32084	28224
106	0	32176	32084	28229
107	0	32196	32080	28236
108	0	32180	32072	28224
109	0	32172	32084	28222
110	0	32172	32092	28216
111	0	32184	32072	28240
112	0	32180	32077	28232
113	0	32176	32076	28222
114	0	32168	32072	28252
115	0	32160	32072	28248
116	0	32168	32076	28233
117	0	32190	32072	28232
118	0	32184	32080	28228
119	0	32168	32094	28232
120	0	32168	32088	28224
121	0	32164	32092	28236
122	0	32176	32088	28240
123	0	32168	32092	28244
124	0	32174	32080	28248
125	0	32176	32076	28248
126	0	32180	32080	28221
127	0	32168	32084	28208
128	0	32168	32080	28204
129	0	32169	32076	28188
130	0	32168	32072	28168
131	0	32168	32064	28176
132	0	32172	32080	28192
133	0	32160	32084	28192
134	0	32160	32080	28185
135	0	32164	32080	28180
136	0	32165	32088	28172
137	0	32172	32096	28176
138	0	32184	32088	28172
139	0	32192	32092	28164
140	0	32192	32092	28168
141	0	32192	32096	28188
142	0	32184	32092	28184
143	0	32196	32096	28184
144	0	32188	32092	28180
145	0	32200	32084	28180
146	0	32200	32084	28185
147	0	32212	32094	28185
148	0	32208	32076	28204
149	0	32200	32072	28201
150	0	32209	32074	28200
151	0	32208	32076	28192
152	0	32208	32076	28188
153	0	32204	32084	28176
154	0	32204	32076	28184
155	0	32196	32084	28180
156	0	32192	32080	28184
157	0	32200	32072	28165
158	0	32192	32085	28168
159	0	32192	32076	28172
160	0	32184	32088	28160
161	0	32184	32080	28172
162	0	32192	32077	28184
163	0	32200	32068	28172
164	0	32208	32064	28172
165	0	32204	32068	28188
166	0	32212	32072	28188
167	0	32204	32084	28176
168	0	32212	32073	28176
169	0	32216	32068	28172
170	0	32224	32060	28160
171	0	32212	32080	28156
172	0	32224	32076	28160
173	0	32212	32072	28148
174	0	32124	32108	28076
175	0	32177	32092	28068
176	0	32232	32080	28092
177	0	32228	32088	28120
178	0	32220	32092	28153
179	0	32228	32092	28192
180	0	32224	32088	28208
181	0	32236	32080	28212
182	0	32256	32072	28220
183	0	32269	32076	28220
184	0	32280	32084	28189
185	0	32296	32092	28193
186	0	32288	32092	28193
187	0	32276	32104	28184
188	0	32272	32097	28168
189	0	32280	32120	28172
190	0	32272	32124	28160
191	0	32284	32124	28176
192	0	32296	32120	28184
193	0	32296	32116	28189
194	0	32296	32109	28201
195	0	32300	32100	28200
196	0	32280	32104	28208
197	0	32268	32124	28224
198	0	32276	32108	28220
199	0	32276	32100	28236
200	0	32272	32088	28232
201	0	32260	32096	28222
202	0	32260	32096	28224
203	0	32268	32092	28228
204	0	32264	32108	28224
205	0	32253	32108	28224
206	0	32256	32116	28224
207	0	32264	32096	28216
208	0	32260	32100	28224
209	0	32264	32092	28228
210	0	32256	32104	28221
211	0	32252	32100	28228
212	0	32248	32100	28240
213	0	32248	32089	28248
214	0	32244	32096	28268
215	0	32252	32088	28260
216	0	32240	32096	28272
217	0	32244	32092	28268
218	0	32228	32080	28249
219	0	32224	32084	28261
220	0	32220	32084	28256
221	0	32240	32084	28256
222	0	32248	32088	28260
223	0	32240	32084	28272
224	0	32240	32086	28260
225	0	32224	32100	28248
226	0	32208	32096	28280
227	0	32216	32096	28284
228	0	32208	32088	28288
229	0	32216	32096	28276
230	0	32212	32088	28276
231	0	32216	32100	28293
232	0	32212	32092	28288
233	0	32204	32096	28288
234	0	32200	32100	28264
235	0	32192	32096	28260
236	0	32188	32101	28252
237	0	32172	32104	28240
238	0	32056	32136	28157
239	0	32088	32144	28132
240	0	32188	32124	28164
241	0	32180	32116	28208
242	0	32128	32109	28245
243	0	32112	32096	28284
244	0	32136	32084	28316
245	0	32140	32077	28324
246	0	32160	32068	28288
247	0	32192	32076	28272
248	0	32212	32076	28285
249	0	32221	32088	28272
250	0	32236	32096	28288
251	0	32232	32104	28264
252	0	32224	32104	28260
253	0	32240	32104	28240
254	0	32232	32112	28228
255	0	32240	32116	28228
256	0	32228	32128	28196
257	0	32224	32136	28180
258	0	32208	32132	28184
259	0	32196	32128	28188
260	0	32192	32134	28192
261	0	32192	32114	28176
262	0	32204	32124	28164
263	0	32200	32120	28164
264	0	32216	32112	28152
265	0	32228	32112	28128
266	0	32252	32096	28120
267	0	32256	32104	28084
268	0	32277	32100	28076
269	0	32276	32104	28060
270	0	32292	32109	28028
271	0	32220	32132	27960
272	0	32172	32148	27912
273	0	32286	32132	27920
274	0	32344	32124	27964
275	0	32336	32116	27996
276	0	32288	32108	28008
277	0	32260	32100	28028
278	0	32280	32097	28062
279	0	32304	32068	28064
280	0	32304	32068	28057
281	0	32328	32068	28029
282	0	32348	32060	28030
283	0	32348	32072	28040
284	0	32348	32088	28040
285	0	32348	32096	28044
286	0	32352	32093	28024
287	0	32368	32096	28016
288	0	32376	32110	28036
289	0	32376	32112	28044
290	0	32380	32116	28068
291	0	32356	32128	28080
292	0	32352	32128	28096
293	0	32328	32140	28116
294	0	32316	32140	28116
295	0	32296	32136	28120
296	0	32288	32120	28136
297	0	32280	32132	28168
298	0	32266	32132	28188
299	0	32264	32124	28162
300	0	32264	32132	28180
301	0	32256	32124	28189
302	0	32252	32125	28192
303	0	32252	32128	28204
304	0	32244	32128	28213
305	0	32244	32136	28204
306	0	32244	32140	28196
307	0	32244	32148	28212
308	0	32240	32148	28228
309	0	32236	32144	28240
310	0	32228	32152	28232
311	0	32232	32132	28244
312	0	32228	32126	28240
313	0	32224	32142	28240
314	0	32228	32132	28240
315	0	32216	32140	28240
316	0	32196	32148	28236
317	0	32192	32144	28249
318	0	32184	32136	28268
319	0	32172	32141	28268
320	0	32172	32144	28268
321	0	32156	32136	28268
322	0	32156	32140	28291
323	0	32152	32152	28293
324	0	32144	32150	28308
325	0	32128	32152	28300
326	0	32009	32176	28221
327	0	32064	32168	28212
328	0	32164	32144	28244
329	0	32152	32136	28280
330	0	32116	32132	28296
331	0	32072	32124	28328
332	0	32072	32104	28344
333	0	32084	32096	28340
334	0	32092	32092	28348
335	0	32120	32089	28328
336	0	32136	32100	28300
337	0	32152	32108	28272
338	0	32180	32116	28256
339	0	32192	32120	28252
340	0	32188	32128	28245
341	0	32196	32132	28212
342	0	32208	32133	28200
343	0	32216	32140	28192
344	0	32252	32144	28196
345	0	32276	32140	28189
346	0	32304	32140	28205
347	0	32408	32136	28248
348	0	32636	32148	28352
349	0	32876	32144	28472
350	0	33048	32148	28509
351	0	33040	32160	28460
352	0	33340	32192	28544
353	0	33464	32212	28628
354	0	33024	32272	28480
355	0	32577	32280	28320
356	0	32348	32262	28250
357	0	32212	32229	28172
358	0	32120	32200	28144
359	0	32176	32164	28140
360	0	32244	32108	28190
361	0	32092	32080	28132
362	0	31996	32092	28108
363	0	32048	32076	28150
364	0	32092	32044	28180
365	0	31956	32052	28120
366	0	31924	32080	28104
367	0	31904	32080	28060
368	0	31960	32088	28057
369	0	32024	32096	28080
370	0	32096	32100	28096
371	0	32064	32096	28028
372	0	32120	32096	28028
373	0	32268	32097	28076
374	0	32300	32108	28092
375	0	32212	32128	28068
376	0	32220	32136	28080
377	0	32224	32145	28042
378	0	32172	32152	27993
379	0	32232	32164	28017
380	0	32320	32160	28064
381	0	32232	32156	28000
382	0	32208	32144	28020
383	0	32204	32160	28008
384	0	32152	32168	28020
385	0	32240	32156	28108
386	0	32264	32156	28096
387	0	32272	32144	28152
388	0	32192	32144	28116
389	0	32160	32168	28132
390	0	32192	32160	28136
391	0	32220	32156	28152
392	0	32240	32152	28184
393	0	32172	32164	28148
394	0	32216	32160	28200
395	0	32368	32160	28285
396	0	32364	32157	28308
397	0	32356	32172	28352
398	0	32353	32160	28376
399	0	32277	32176	28308
400	0	32256	32196	28281
401	0	32232	32192	28268
402	0	32238	32176	28272
403	0	32272	32160	28292
404	0	32288	32156	28320
405	0	32280	32180	28333
406	0	32288	32172	28368
407	0	32304	32172	28380
408	0	32336	32164	28364
409	0	32360	32180	28368
410	0	32376	32204	28369
411	0	32376	32216	28372
412	0	32360	32216	28360
413	0	32356	32209	28364
414	0	32356	32188	28368
415	0	32332	32200	28368
416	0	32312	32196	28357
417	0	32296	32197	28352
418	0	32264	32188	28340
419	0	32264	32180	28332
420	0	32248	32168	28345
421	0	32228	32160	28304
422	0	32204	32168	28296
423	0	32196	32160	28300
424	0	32188	32148	28256
425	0	32180	32144	28255
426	0	32184	32156	28256
427	0	32176	32161	28240
428	0	32172	32152	28221
429	0	32188	32156	28224
430	0	32192	32160	28213
431	0	32216	32148	28184
432	0	32216	32173	28152
433	0	32236	32184	28144
434	0	32248	32196	28164
435	0	32240	32200	28168
436	0	32232	32184	28148
437	0	32224	32200	28180
438	0	32221	32180	28160
439	0	32232	32184	28180
440	0	32220	32177	28192
441	0	32228	32164	28208
442	0	32236	32160	28188
443	0	32233	32160	28184
444	0	32240	32184	28177
445	0	32248	32197	28180
446	0	32256	32180	28160
447	0	32268	32148	28128
448	0	32284	32136	28108
449	0	32284	32160	28120
450	0	32272	32148	28116
451	0	32264	32136	28101
452	0	32260	32156	28108
453	0	32256	32148	28100
454	0	32252	32132	28080
455	0	32248	32152	28100
456	0	32216	32156	28112
457	0	32208	32149	28096
458	0	32196	32156	28104
459	0	32176	32132	28063
460	0	32148	32132	28084
461	0	32132	32152	28141
462	0	32140	32164	28148
463	0	32152	32156	28136
464	0	32172	32132	28148
465	0	32156	32100	28129
466	0	32144	32144	28190
467	0	32128	32144	28200
468	0	32124	32144	28192
469	0	32141	32156	28228
470	0	32128	32120	28208
471	0	32096	32100	28176
472	0	32072	32108	28180
473	0	32048	32120	28216
474	0	32064	32144	28236
475	0	32120	32148	28264
476	0	32144	32128	28256
477	0	32112	32120	28232
478	0	32128	32116	28224
479	0	32136	32132	28244
480	0	32180	32156	28276
481	0	32156	32126	28268
482	0	32180	32140	28308
483	0	32180	32164	28316
484	0	32196	32180	28344
485	0	32176	32172	28279
486	0	32216	32192	28340
487	0	32220	32168	28336
488	0	32184	32173	28316
489	0	32264	32196	28408
490	0	32232	32168	28368
491	0	32188	32176	28332
492	0	32212	32168	28360
493	0	32104	32146	28264
494	0	32080	32165	28252
495	0	32176	32192	28364
496	0	32176	32201	28352
497	0	32200	32200	28392
498	0	32144	32212	28356
499	0	32160	32196	28372
500	0	32188	32193	28369
501	0	32064	32148	28273
502	0	32032	32196	28256
503	0	32152	32192	28364
504	0	32188	32200	28389
505	0	32228	32200	28384
506	0	32100	32197	28304
507	0	32112	32201	28300
508	0	32124	32196	28316
509	0	32184	32216	28340
510	0	32220	32228	28356
511	0	32284	32232	28392
512	0	32280	32248	28384
513	0	32240	32256	28332
514	0	32280	32257	28360
515	0	32036	32228	28150
516	0	32028	32278	28148
517	0	32061	32264	28172
518	0	32104	32285	28224
519	0	32104	32252	28212
520	0	32148	32228	28204
521	0	32188	32252	28261
522	0	32121	32256	28220
523	0	32040	32248	28168
524	0	32068	32280	28232
525	0	32132	32276	28288
526	0	32136	32272	28224
527	0	32128	32256	28192
528	0	32152	32292	28192
529	0	32196	32312	28272
530	0	32348	32320	28416
531	0	32336	32320	28372
532	0	32436	32376	28484
533	0	32425	32380	28464
534	0	32220	32340	28284
535	0	32180	32392	28180
536	0	32240	32412	28284
537	0	32152	32400	28268
538	0	32232	32398	28412
539	0	32248	32356	28448
540	0	32256	32360	28460
541	0	32296	32349	28560
542	0	32268	32376	28508
543	0	32352	32372	28428
544	0	32352	32392	28400
545	0	32316	32438	28356
546	0	32232	32496	28232
547	0	32280	32500	28256
548	0	32424	32508	28396
549	0	32416	32492	28440
550	0	32344	32496	28276
551	0	32288	32508	28172
552	0	32320	32496	28180
553	0	32349	32496	28188
554	0	32280	32500	28056
555	0	32284	32484	28040
556	0	32308	32456	28044
557	0	32473	32478	28200
558	0	32564	32500	28320
559	0	32476	32528	28192
560	0	32388	32540	28056
561	0	32324	32560	27972
562	0	32360	32568	27900
563	0	32400	32568	27872
564	0	32392	32612	27900
565	0	32448	32628	28134
566	0	32460	32592	28280
567	0	32572	32596	28428
568	0	32532	32608	28368
569	0	32369	32610	28105
570	0	32288	32672	27937
571	0	32312	32696	27964
572	0	32384	32704	28140
573	0	32440	32680	28096
574	0	32292	32696	27884
575	0	32256	32696	27748
576	0	32308	32760	27796
577	0	32348	32741	27916
578	0	32336	32720	27972
579	0	32336	32720	27960
580	0	32256	32728	27956
581	0	32244	32764	27968
582	0	32312	32752	27988
583	0	32316	32736	27984
584	0	32344	32748	27976
585	0	32328	32760	27956
586	0	32284	32756	27900
587	0	32284	32796	27920
588	0	32364	32796	28063
589	0	32396	32776	28128
590	0	32392	32760	28076
591	0	32376	32777	28008
592	0	32332	32788	27932
593	0	32308	32804	27884
594	0	32312	32828	27884
595	0	32336	32847	27912
596	0	32384	32860	27998
597	0	32412	32860	28004
598	0	32444	32868	28040
599	0	32424	32864	28028
600	0	32420	32864	27997
601	0	32404	32884	27990
602	0	32392	32888	27988
603	0	32400	32888	28056
604	0	32432	32892	28112
605	0	32420	32868	28112
606	0	32416	32876	28120
607	0	32440	32872	28148
608	0	32412	32872	28156
609	0	32368	32876	28112
610	0	32368	32880	28096
611	0	32380	32896	28148
612	0	32360	32904	28158
613	0	32352	32900	28160
614	0	32344	32904	28136
615	0	32360	32904	28148
616	0	32368	32900	28152
617	0	32384	32896	28164
618	0	32392	32896	28160
619	0	32408	32888	28168
620	0	32424	32900	28168
621	0	32440	32896	28173
622	0	32456	32908	28160
623	0	32464	32900	28176
624	0	32480	32896	28185
625	0	32488	32901	28180
626	0	32488	32897	28212
627	0	32480	32900	28224
628	0	32488	32908	28224
629	0	32480	32920	28212
630	0	32480	32904	28224
631	0	32472	32904	28224
632	0	32456	32912	28236
633	0	32448	32916	28224
634	0	32440	32916	28232
635	0	32420	32896	28224
636	0	32408	32892	28232
637	0	32404	32908	28225
638	0	32404	32900	28232
639	0	32388	32892	28240
640	0	32388	32881	28232
641	0	32408	32888	28224
642	0	32408	32900	28216
643	0	32416	32916	28212
644	0	32424	32916	28209
645	0	32440	32916	28180
646	0	32444	32916	28168
647	0	32448	32920	28153
648	0	32460	32920	28160
649	0	32472	32920	28140
650	0	32480	32912	28124
651	0	32476	32928	28104
652	0	32472	32936	28112
653	0	32484	32948	28104
654	0	32484	32936	28093
655	0	32484	32936	28092
656	0	32484	32948	28084
657	0	32496	32960	28064
658	0	32488	32968	28084
659	0	32488	32972	28078
660	0	32492	32968	28068
661	0	32484	32974	28072
662	0	32500	32972	28072
663	0	32496	32972	28072
664	0	32496	32982	28064
665	0	32484	32984	28068
666	0	32496	32980	28073
667	0	32492	32980	28072
668	0	32484	32976	28084
669	0	32484	32973	28072
670	0	32489	32984	28072
671	0	32492	32988	28080
672	0	32488	32988	28088
673	0	32492	32972	28100
674	0	32480	32976	28104
675	0	32464	32980	28125
676	0	32464	32984	28140
677	0	32464	32980	28140
678	0	32448	32984	28132
679	0	32444	32993	28112
680	0	32440	32984	28120
681	0	32448	32980	28128
682	0	32448	32970	28129
683	0	32440	32964	28152
684	0	32440	32968	28164
685	0	32448	32981	28168
686	0	32448	32976	28212
687	0	32444	32988	28216
688	0	32444	32988	28236
689	0	32448	32992	28228
690	0	32456	32996	28228
691	0	32448	32989	28260
692	0	32456	33016	28252
693	0	32448	33020	28246
694	0	32440	33008	28256
695	0	32440	33012	28264
696	0	32428	33024	28248
697	0	32436	33004	28276
698	0	32428	33008	28280
699	0	32424	33000	28288
700	0	32420	33016	28297
701	0	32416	33016	28300
702	0	32408	33016	28276
703	0	32424	33004	28312
704	0	32424	33000	28360
705	0	32416	33012	28366
706	0	32416	33020	28344
707	0	32396	33028	28308
708	0	32368	33016	28280
709	0	32356	33021	28280
710	0	32349	33026	28260
711	0	32348	33020	28252
712	0	32344	33008	28208
713	0	32344	33012	28220
714	0	32344	33020	28236
715	0	32340	33032	28212
716	0	32384	33040	28264
717	0	32384	33052	28276
718	0	32380	33053	28244
719	0	32360	33044	28176
720	0	32364	33048	28140
721	0	32380	33052	28136
722	0	32392	33060	28160
723	0	32400	33048	28144
724	0	32380	33045	28116
725	0	32344	33028	28092
726	0	32348	33036	28088
727	0	32348	33044	28092
728	0	32348	33056	28085
729	0	32344	33072	28079
730	0	32344	33076	28080
731	0	32340	33064	28048
732	0	32336	33084	28044
733	0	32297	33076	28032
734	0	32285	33092	28032
735	0	32300	33088	28060
736	0	32296	33100	28084
737	0	32284	33093	28064
738	0	32296	33084	28065
739	0	32300	33080	28088
740	0	32296	33072	28096
741	0	32304	33084	28093
742	0	32312	33072	28113
743	0	32296	33084	28104
744	0	32312	33068	28120
745	0	32328	33080	28144
746	0	32328	33088	28180
747	0	32332	33096	28208
748	0	32328	33092	28216
749	0	32316	33084	28208
750	0	32312	33088	28220
751	0	32332	33092	28248
752	0	32348	33088	28260
753	0	32352	33092	28252
754	0	32352	33108	28288
755	0	32348	33100	28320
756	0	32372	33100	28342
757	0	32377	33080	28332
758	0	32388	33088	28320
759	0	32392	33105	28312
760	0	32384	33104	28313
761	0	32384	33120	28336
762	0	32396	33116	28344
763	0	32396	33132	28320
764	0	32388	33152	28316
765	0	32380	33176	28297
766	0	32396	33152	28316
767	0	32392	33168	28314
768	0	32360	33184	28304
769	0	32336	33180	28300
770	0	32352	33180	28316
771	0	32348	33180	28344
772	0	32328	33192	28356
773	0	32320	33189	28353
774	0	32332	33196	28388
775	0	32320	33184	28373
776	0	32304	33188	28348
777	0	32304	33184	28316
778	0	32300	33205	28300
779	0	32301	33224	28302
780	0	32340	33232	28336
781	0	32304	33220	28256
782	0	32308	33220	28189
783	0	32280	33224	28156
784	0	32288	33224	28132
785	0	32300	33244	28204
786	0	32320	33240	28264
787	0	32276	33244	28180
788	0	32260	33252	28136
789	0	32312	33264	28172
790	0	32324	33248	28174
791	0	32292	33245	28112
792	0	32256	33256	28076
793	0	32212	33256	28020
794	0	32232	33252	27997
795	0	32204	33248	27904
796	0	32192	33272	27872
797	0	32200	33296	27884
798	0	32244	33304	28008
799	0	32256	33300	28008
800	0	32256	33304	27929
801	0	32289	33324	27984
802	0	32280	33328	28020
803	0	32236	33340	27924
804	0	32240	33344	27880
805	0	32272	33352	27920
806	0	32264	33336	27904
807	0	32240	33340	27844
808	0	32268	33340	27892
809	0	32256	33348	27920
810	0	32268	33336	27952
811	0	32276	33332	27993
812	0	32240	33320	28012
813	0	32244	33326	28000
814	0	32224	33332	27992
815	0	32184	33344	28009
816	0	32192	33338	28048
817	0	32196	33340	28060
818	0	32193	33352	28072
819	0	32180	33344	28076
820	0	32200	33340	28117
821	0	32188	33344	28160
822	0	32144	33376	28156
823	0	32176	33376	28140
824	0	32176	33372	28137
825	0	32168	33372	28116
826	0	32168	33380	28128
827	0	32157	33380	28133
828	0	32160	33385	28172
829	0	32172	33376	28224
830	0	32172	33364	28244
831	0	32168	33353	28272
832	0	32164	33356	28281
833	0	32172	33356	28300
834	0	32160	33344	28328
835	0	32168	33344	28352
836	0	32184	33344	28368
837	0	32172	33373	28449
838	0	32128	33380	28544
839	0	32120	33340	28516
840	0	32172	33313	28540
841	0	32208	33336	28552
842	0	32256	33340	28564
843	0	32272	33376	28540
844	0	32256	33373	28488
845	0	32272	33392	28504
846	0	32300	33408	28557
847	0	32288	33424	28549
848	0	32284	33448	28556
849	0	32276	33448	28584
850	0	32248	33464	28480
851	0	32244	33456	28472
852	0	32256	33450	28504
853	0	32292	33448	28564
854	0	32280	33460	28568
855	0	32280	33485	28596
856	0	32316	33473	28608
857	0	32276	33484	28520
858	0	32244	33492	28468
859	0	32276	33528	28504
860	0	32224	33556	28460
861	0	32192	33568	28424
862	0	32204	33540	28468
863	0	32212	33528	28416
864	0	32180	33556	28372
865	0	32184	33556	28328
866	0	32236	33572	28412
867	0	32248	33564	28368
868	0	32212	33588	28352
869	0	32240	33580	28364
870	0	32288	33580	28328
871	0	32264	33608	28248
872	0	32288	33652	28256
873	0	32309	33660	28288
874	0	32284	33652	28236
875	0	32252	33672	28140
876	0	32260	33666	28152
877	0	32284	33672	28236
878	0	32296	33662	28236
879	0	32284	33668	28240
880	0	32224	33708	28156
881	0	32184	33704	28060
882	0	32204	33724	28056
883	0	32192	33722	28068
884	0	32161	33712	28020
885	0	32156	33716	28000
886	0	32088	33744	27948
887	0	32084	33753	27920
888	0	32040	33756	27888
889	0	32032	33760	27868
890	0	32040	33764	27848
891	0	32004	33788	27852
892	0	32000	33772	27924
893	0	32000	33772	27920
894	0	31992	33760	27896
895	0	31992	33772	27908
896	0	32000	33792	27948
897	0	31996	33780	28000
898	0	31962	33788	28004
899	0	31980	33784	28056
900	0	32001	33784	28068
901	0	32024	33776	28080
902	0	32012	33768	28088
903	0	32008	33784	28120
904	0	32008	33800	28156
905	0	32024	33784	28160
906	0	32032	33796	28164
907	0	32024	33800	28204
908	0	32056	33800	28228
909	0	32068	33804	28270
910	0	32052	33820	28284
911	0	32048	33805	28304
912	0	32056	33824	28260
913	0	32064	33816	28292
914	0	32076	33820	28357
915	0	32068	33812	28356
916	0	32092	33812	28376
917	0	32092	33820	28408
918	0	32072	33840	28409
919	0	32085	33820	28422
920	0	32084	33816	28472
921	0	32072	33816	28480
922	0	32080	33820	28468
923	0	32104	33824	28500
924	0	32104	33821	28532
925	0	32112	33820	28528
926	0	32120	33836	28580
927	0	32128	33828	28592
928	0	32136	33844	28580
929	0	32128	33852	28592
930	0	32144	33876	28560
931	0	32172	33856	28572
932	0	32156	33861	28572
933	0	32152	33892	28560
934	0	32152	33908	28604
935	0	32140	33932	28628
936	0	32144	33932	28624
937	0	32144	33928	28604
938	0	32144	33904	28624
939	0	32136	33924	28584
940	0	32168	33952	28572
941	0	32192	33952	28584
942	0	32200	33960	28592
943	0	32188	33956	28580
944	0	32188	33964	28566
945	0	32224	33973	28548
946	0	32220	33984	28492
947	0	32192	33989	28472
948	0	32192	33996	28476
949	0	32176	33992	28468
950	0	32200	34008	28456
951	0	32192	34017	28393
952	0	32168	34040	28412
953	0	32136	34040	28409
954	0	32140	34040	28404
955	0	32120	34056	28404
956	0	32120	34048	28377
957	0	32096	34048	28348
958	0	32080	34056	28297
959	0	32084	34056	28304
960	0	32080	34068	28340
961	0	32044	34056	28333
962	0	32032	34080	28300
963	0	32048	34092	28296
964	0	32016	34104	28252
965	0	32040	34104	28245
966	0	32024	34120	28216
967	0	32024	34109	28208
968	0	31996	34124	28160
969	0	32004	34124	28156
970	0	32020	34120	28180
971	0	31992	34112	28184
972	0	31985	34128	28164
973	0	32008	34128	28156
974	0	32016	34144	28196
975	0	31976	34152	28188
976	0	31968	34156	28168
977	0	31984	34144	28196
978	0	31952	34128	28222
979	0	31964	34136	28220
980	0	31952	34152	28200
981	0	31932	34152	28184
982	0	31940	34136	28184
983	0	31940	34112	28204
984	0	31936	34120	28204
985	0	31928	34136	28212
986	0	31920	34136	28248
987	0	31940	34124	28264
988	0	31960	34108	28280
989	0	31960	34120	28292
990	0	31980	34124	28320
991	0	31996	34124	28340
992	0	32000	34128	28392
993	0	32032	34124	28416
994	0	32060	34116	28452
995	0	32092	34104	28488
996	0	32092	34100	28528
997	0	32128	34104	28596
998	0	32156	34096	28640
999	0	32148	34112	28628
1000	0	32184	34104	28616
1001	0	32200	34112	28632
1002	0	32212	34129	28664
1003	0	32216	34120	28732
1004	0	32212	34116	28696
1005	0	32196	34132	28708
1006	0	32208	34136	28732
1007	0	32200	34144	28736
1008	0	32192	34140	28676
1009	0	32192	34144	28648
1010	0	32200	34144	28684
1011	0	32188	34132	28728
1012	0	32168	34120	28724
1013	0	32156	34132	28728
1014	0	32160	34128	28724
1015	0	32168	34120	28736
1016	0	32173	34112	28677
1017	0	32197	34140	28708
1018	0	32200	34148	28726
1019	0	32216	34145	28676
1020	0	32207	34164	28684
1021	0	32216	34172	28676
1022	0	32224	34168	28671
1023	0	32232	34176	28656
1024	0	32248	34200	28692
1025	0	32264	34212	28692
1026	0	32284	34222	28664
1027	0	32284	34240	28620
1028	0	32312	34244	28600
1029	0	32312	34272	28636
1030	0	32324	34268	28657
1031	0	32316	34264	28624
1032	0	32320	34268	28588
1033	0	32304	34272	28536
1034	0	32296	34308	28569
1035	0	32296	34318	28564
1036	0	32292	34336	28572
1037	0	32268	34348	28576
1038	0	32273	34328	28545
1039	0	32248	34340	28472
1040	0	32244	34360	28500
1041	0	32216	34376	28472
1042	0	32168	34384	28480
1043	0	32128	34368	28460
1044	0	32116	34368	28489
1045	0	32080	34369	28420
1046	0	32072	34368	28400
1047	0	32064	34384	28416
1048	0	32048	34396	28416
1049	0	32024	34384	28397
1050	0	32004	34376	28396
1051	0	31992	34372	28384
1052	0	32004	34384	28377
1053	0	32004	34396	28368
1054	0	32000	34408	28300
1055	0	31996	34444	28344
1056	0	32000	34436	28316
1057	0	31988	34440	28229
1058	0	31984	34460	28208
1059	0	31972	34480	28232
1060	0	31972	34480	28234
1061	0	31968	34488	28224
1062	0	31968	34500	28221
1063	0	31956	34488	28176
1064	0	31952	34512	28180
1065	0	31948	34520	28208
1066	0	31961	34508	28232
1067	0	31968	34508	28248
1068	0	31956	34508	28205
1069	0	31960	34520	28176
1070	0	31968	34540	28192
1071	0	31968	34536	28280
1072	0	31964	34536	28296
1073	0	31961	34536	28296
1074	0	31956	34544	28334
1075	0	31936	34532	28332
1076	0	31948	34544	28316
1077	0	31956	34544	28332
1078	0	31960	34540	28332
1079	0	31960	34545	28352
1080	0	31984	34564	28400
1081	0	31984	34572	28414
1082	0	31984	34572	28396
1083	0	32008	34576	28405
1084	0	32024	34576	28448
1085	0	32016	34560	28421
1086	0	32032	34588	28408
1087	0	32068	34604	28440
1088	0	32064	34608	28416
1089	0	32072	34596	28376
1090	0	32088	34612	28368
1091	0	32088	34604	28421
1092	0	32092	34584	28404
1093	0	32092	34596	28424
1094	0	32088	34604	28441
1095	0	32064	34616	28437
1096	0	32068	34620	28472
1097	0	32052	34616	28508
1098	0	32044	34608	28541
1099	0	32036	34597	28508
1100	0	32048	34616	28540
1101	0	32016	34600	28512
1102	0	32032	34591	28540
1103	0	32040	34581	28560
1104	0	32036	34576	28617
1105	0	32028	34564	28652
1106	0	32040	34584	28668
1107	0	32056	34568	28672
1108	0	32068	34552	28624
1109	0	32080	34568	28648
1110	0	32068	34584	28760
1111	0	32052	34572	28776
1112	0	32072	34572	28816
1113	0	32068	34572	28784
1114	0	32061	34580	28752
1115	0	32060	34576	28776
1116	0	32072	34576	28804
1117	0	32052	34572	28776
1118	0	32044	34600	28781
1119	0	32048	34580	28780
1120	0	32040	34584	28820
1121	0	32020	34572	28804
1122	0	32024	34576	28796
1123	0	32020	34564	28812
1124	0	32024	34560	28820
1125	0	32036	34552	28800
1126	0	32032	34566	28820
1127	0	32032	34572	28804
1128	0	32036	34553	28796
1129	0	32056	34560	28749
1130	0	32052	34572	28752
1131	0	32056	34592	28778
1132	0	32064	34576	28772
1133	0	32080	34589	28748
1134	0	32080	34600	28712
1135	0	32085	34604	28716
1136	0	32100	34612	28712
1137	0	32084	34632	28668
1138	0	32088	34632	28656
1139	0	32096	34640	28702
1140	0	32092	34648	28636
1141	0	32096	34656	28548
1142	0	32096	34684	28562
1143	0	32104	34672	28609
1144	0	32092	34684	28572
1145	0	32096	34692	28548
1146	0	32088	34700	28520
1147	0	32096	34716	28536
1148	0	32097	34740	28560
1149	0	32080	34780	28566
1150	0	32072	34804	28532
1151	0	32056	34820	28521
1152	0	32048	34820	28496
1153	0	32040	34828	28456
1154	0	32052	34844	28416
1155	0	32064	34848	28424
1156	0	32072	34880	28432
1157	0	32080	34884	28436
1158	0	32088	34884	28444
1159	0	32096	34896	28448
1160	0	32096	34888	28456
1161	0	32093	34896	28460
1162	0	32092	34908	28456
1163	0	32090	34900	28460
1164	0	32092	34908	28472
1165	0	32084	34900	28480
1166	0	32056	34892	28482
1167	0	32032	34904	28477
1168	0	32008	34912	28477
1169	0	31976	34912	28480
1170	0	31952	34904	28488
1171	0	31932	34908	28494
1172	0	31912	34904	28496
1173	0	31896	34908	28488
1174	0	31892	34912	28504
1175	0	31888	34912	28520
1176	0	31880	34928	28548
1177	0	31884	34936	28572
1178	0	31896	34928	28580
1179	0	31888	34972	28588
1180	0	31896	34980	28560
1181	0	31908	34992	28548
1182	0	31920	34996	28552
1183	0	31928	34988	28532
1184	0	31948	34984	28524
1185	0	31933	34972	28512
1186	0	31928	34964	28520
1187	0	31936	34944	28560
1188	0	31936	34944	28556
1189	0	31928	34952	28540
1190	0	31928	34956	28544
1191	0	31928	34952	28565
1192	0	31924	34952	28580
1193	0	31916	34944	28584
1194	0	31896	34940	28604
1195	0	31880	34941	28620
1196	0	31872	34940	28620
1197	0	31880	34920	28616
1198	0	31864	34904	28612
1199	0	31844	34904	28620
1200	0	31832	34888	28624
1201	0	31812	34864	28620
1202	0	31800	34836	28640
1203	0	31784	34812	28648
1204	0	31780	34804	28660
1205	0	31776	34801	28676
1206	0	31776	34792	28700
1207	0	31784	34780	28736
1208	0	31776	34776	28741
1209	0	31800	34772	28740
1210	0	31820	34764	28749
1211	0	31844	34752	28760
1212	0	31868	34772	28784
1213	0	31888	34789	28768
1214	0	31912	34786	28748
1215	0	31928	34780	28782
1216	0	31932	34792	28816
1217	0	31948	34788	28832
1218	0	31968	34784	28812
1219	0	31968	34785	28820
1220	0	31956	34776	28860
1221	0	31972	34744	28892
1222	0	31977	34736	28864
1223	0	31984	34732	28844
1224	0	31992	34720	28868
1225	0	32004	34712	28896
1226	0	32016	34732	28904
1227	0	32020	34740	28928
1228	0	32040	34756	28960
1229	0	32036	34752	28925
1230	0	32040	34748	28888
1231	0	32029	34756	28912
1232	0	32016	34758	28916
1233	0	32008	34745	28948
1234	0	32000	34736	28968
1235	0	31992	34732	28924
1236	0	31992	34744	28936
1237	0	31968	34740	28964
1238	0	31968	34732	28968
1239	0	31960	34736	28984
1240	0	31980	34720	29004
1241	0	31960	34720	28996
1242	0	31956	34732	28992
1243	0	31952	34768	29016
1244	0	31968	34772	28988
1245	0	32000	34796	28968
1246	0	32000	34792	28964
1247	0	32012	34792	28940
1248	0	32032	34800	28924
1249	0	32032	34820	28969
1250	0	32032	34816	29024
1251	0	32037	34840	28981
1252	0	32060	34852	28960
1253	0	32084	34848	28920
1254	0	32112	34880	28908
1255	0	32120	34908	28884
1256	0	32128	34916	28904
1257	0	32120	34916	28880
1258	0	32132	34924	28912
1259	0	32108	34944	28868
1260	0	32096	34965	28824
1261	0	32092	34968	28864
1262	0	32068	34984	28864
1263	0	32080	35004	28832
1264	0	32056	35008	28788
1265	0	32056	35028	28776
1266	0	32036	35040	28824
1267	0	32032	35052	28844
1268	0	32016	35080	28832
1269	0	32016	35069	28833
1270	0	31988	35092	28812
1271	0	32000	35096	28820
1272	0	31988	35120	28784
1273	0	31952	35132	28788
1274	0	31944	35136	28852
1275	0	31944	35148	28816
1276	0	31928	35156	28800
1277	0	31924	35164	28752
1278	0	31928	35165	28760
1279	0	31932	35188	28757
1280	0	31932	35208	28744
1281	0	31916	35212	28728
1282	0	31896	35224	28756
1283	0	31905	35212	28764
1284	0	31912	35200	28744
1285	0	31901	35193	28772
1286	0	31892	35208	28744
1287	0	31880	35212	28781
1288	0	31868	35200	28804
1289	0	31864	35201	28760
1290	0	31872	35212	28784
1291	0	31880	35220	28832
1292	0	31856	35208	28845
1293	0	31864	35213	28840
1294	0	31836	35220	28820
1295	0	31836	35220	28832
1296	0	31832	35224	28829
1297	0	31828	35228	28868
1298	0	31828	35216	28838
1299	0	31840	35220	28808
1300	0	31848	35236	28844
1301	0	31844	35228	28817
1302	0	31824	35232	28830
1303	0	31812	35240	28856
1304	0	31824	35249	28889
1305	0	31828	35228	28877
1306	0	31840	35236	28876
1307	0	31840	35225	28916
1308	0	31868	35244	28937
1309	0	31884	35260	28922
1310	0	31864	35300	28964
1311	0	31880	35288	28936
1312	0	31888	35272	28964
1313	0	31896	35248	29008
1314	0	31920	35248	29028
1315	0	31928	35280	29016
1316	0	31936	35280	29001
1317	0	31952	35292	28960
1318	0	31964	35313	28980
1319	0	31944	35324	29004
1320	0	31960	35308	29016
1321	0	31960	35308	28980
1322	0	31952	35316	29004
1323	0	31936	35332	29001
1324	0	31928	35336	29052
1325	0	31928	35336	28992
1326	0	31916	35348	28976
1327	0	31920	35336	28952
1328	0	31916	35360	28964
1329	0	31884	35380	28932
1330	0	31888	35412	28932
1331	0	31856	35436	28940
1332	0	31844	35420	28924
1333	0	31836	35408	29000
1334	0	31832	35380	28956
1335	0	31832	35392	28928
1336	0	31824	35412	28892
1337	0	31780	35420	28888
1338	0	31772	35448	28966
1339	0	31748	35444	28894
1340	0	31724	35448	28924
1341	0	31728	35453	28916
1342	0	31716	35456	28920
1343	0	31696	35476	28904
1344	0	31700	35480	28796
1345	0	31672	35488	28864
1346	0	31656	35496	28940
1347	0	31632	35528	28864
1348	0	31636	35536	28856
1349	0	31612	35552	28860
1350	0	31624	35564	28948
1351	0	31624	35564	28928
1352	0	31624	35604	28904
1353	0	31632	35604	28922
1354	0	31648	35624	28900
1355	0	31684	35648	28848
1356	0	31680	35641	28928
1357	0	31708	35644	28924
1358	0	31740	35672	28928
1359	0	31740	35652	28896
1360	0	31741	35672	28932
1361	0	31760	35680	28956
1362	0	31796	35696	28980
1363	0	31818	35724	28956
1364	0	31872	35744	28996
1365	0	31892	35752	28984
1366	0	31900	35740	29064
1367	0	31940	35740	29088
1368	0	31976	35744	29080
1369	0	32000	35748	29144
1370	0	32036	35764	29172
1371	0	32109	35764	29200
1372	0	32136	35780	29240
1373	0	32172	35764	29268
1374	0	32212	35792	29276
1375	0	32236	35824	29276
1376	0	32248	35832	29280
1377	0	32256	35824	29285
1378	0	32252	35832	29304
1379	0	32248	35836	29301
1380	0	32208	35860	29294
1381	0	32204	35880	29292
1382	0	32192	35885	29296
1383	0	32156	35876	29344
1384	0	32112	35844	29340
1385	0	32064	35824	29344
1386	0	32048	35836	29320
1387	0	32028	35848	29305
1388	0	32020	35856	29300
1389	0	31984	35824	29324
1390	0	31976	35824	29316
1391	0	31968	35816	29312
1392	0	31956	35816	29216
1393	0	31956	35848	29280
1394	0	31940	35833	29256
1395	0	31924	35812	29268
1396	0	31924	35832	29272
1397	0	31920	35836	29272
1398	0	31888	35824	29264
1399	0	31872	35808	29288
1400	0	31860	35808	29268
1401	0	31860	35820	29204
1402	0	31844	35840	29180
1403	0	31828	35844	29192
1404	0	31824	35856	29180
1405	0	31812	35872	29148
1406	0	31808	35860	29176
1407	0	31772	35872	29156
1408	0	31760	35896	29168
1409	0	31760	35896	29152
1410	0	31753	35904	29120
1411	0	31744	35880	29125
1412	0	31728	35888	29144
1413	0	31708	35892	29160
1414	0	31720	35892	29136
1415	0	31720	35920	29168
1416	0	31716	35936	29208
1417	0	31712	35940	29204
1418	0	31716	35936	29220
1419	0	31712	35940	29248
1420	0	31720	35944	29264
1421	0	31728	35952	29276
1422	0	31728	35952	29268
1423	0	31728	35968	29305
1424	0	31752	35980	29316
1425	0	31760	35972	29348
1426	0	31792	35984	29404
1427	0	31808	36000	29428
1428	0	31824	36000	29372
1429	0	31832	36000	29405
1430	0	31852	35992	29418
1431	0	31872	36004	29412
1432	0	31892	36024	29440
1433	0	31896	36028	29468
1434	0	31904	36032	29484
1435	0	31912	36036	29520
1436	0	31916	36044	29524
1437	0	31920	36016	29532
1438	0	31924	36016	29564
1439	0	31924	36032	29544
1440	0	31904	36032	29564
1441	0	31916	36041	29616
1442	0	31940	36072	29608
1443	0	31940	36072	29584
1444	0	31948	36080	29572
1445	0	31960	36104	29552
1446	0	31960	36124	29612
1447	0	31960	36120	29600
1448	0	31956	36140	29588
1449	0	31956	36124	29608
1450	0	31964	36132	29676
1451	0	31976	36148	29624
1452	0	31984	36156	29624
1453	0	32000	36120	29640
1454	0	32040	36116	29620
1455	0	32044	36168	29616
1456	0	32036	36140	29648
1457	0	32036	36116	29681
1458	0	32064	36144	29652
1459	0	32064	36160	29662
1460	0	32040	36152	29649
1461	0	32040	36140	29640
1462	0	32032	36184	29612
1463	0	31992	36176	29640
1464	0	31980	36116	29688
1465	0	31996	36136	29660
1466	0	31976	36196	29668
1467	0	31976	36228	29728
1468	0	31964	36300	29720
1469	0	31960	36268	29652
1470	0	31948	36244	29668
1471	0	31936	36196	29672
1472	0	31932	36220	29652
1473	0	31956	36308	29697
1474	0	31964	36304	29692
1475	0	31976	36300	29637
1476	0	31988	36285	29592
1477	0	31968	36216	29632
1478	0	31976	36068	29636
1479	0	31996	36076	29564
1480	0	32052	36164	29588
1481	0	32056	36252	29628
1482	0	32032	36288	29616
1483	0	32032	36440	29660
1484	0	32024	36500	29684
1485	0	31976	36376	29650
1486	0	31940	36288	29588
1487	0	31928	36300	29572
1488	0	31868	36348	29584
1489	0	31864	36316	29649
1490	0	31884	36372	29624
1491	0	31880	36384	29580
1492	0	31872	36424	29604
1493	0	31864	36384	29656
1494	0	31868	36436	29684
1495	0	31860	36424	29652
1496	0	31812	36404	29624
1497	0	31792	36412	29584
1498	0	31764	36413	29568
1499	0	31744	36380	29592
1500	0	31728	36336	29556
1501	0	31720	36372	29545
1502	0	31736	36436	29564
1503	0	31728	36476	29584
1504	0	31753	36472	29604
1505	0	31744	36480	29612
1506	0	31736	36412	29605
1507	0	31756	36416	29592
1508	0	31780	36472	29636
1509	0	31788	36480	29660
1510	0	31792	36437	29664
1511	0	31784	36416	29716
1512	0	31824	36372	29720
1513	0	31808	36380	29712
1514	0	31824	36424	29708
1515	0	31808	36436	29724
1516	0	31824	36440	29748
1517	0	31820	36444	29776
1518	0	31832	36426	29828
1519	0	31832	36440	29832
1520	0	31836	36436	29868
1521	0	31853	36444	29896
1522	0	31848	36476	29900
1523	0	31856	36480	29896
1524	0	31856	36448	29908
1525	0	31860	36429	29932
1526	0	31869	36440	29948
1527	0	31880	36440	29965
1528	0	31900	36461	29956
1529	0	31905	36504	29956
1530	0	31912	36500	29972
1531	0	31908	36516	29981
1532	0	31916	36500	29984
1533	0	31924	36464	29956
1534	0	31932	36436	29940
1535	0	31944	36412	29944
1536	0	31964	36392	29976
1537	0	31964	36372	29996
1538	0	31956	36368	30033
1539	0	31992	36380	30032
1540	0	32008	36392	30004
1541	0	32032	36392	30032
1542	0	32036	36364	30040
1543	0	32036	36336	30064
1544	0	32058	36288	30104
1545	0	32084	36244	30108
1546	0	32112	36208	30124
1547	0	32120	36172	30120
1548	0	32132	36088	30105
1549	0	32164	35876	30092
1550	0	32184	35668	30088
1551	0	32076	35758	30092
1552	0	31996	35872	30092
1553	0	31988	35952	30100
1554	0	32000	36020	30121
1555	0	31972	36160	30144
1556	0	31948	36276	30164
1557	0	31936	36340	30176
1558	0	31916	36368	30200
1559	0	31912	36356	30204
1560	0	31880	36352	30205
1561	0	31856	36408	30200
1562	0	31824	36424	30176
1563	0	31816	36484	30174
1564	0	31804	36584	30160
1565	0	31808	36604	30120
1566	0	31792	36652	30104
1567	0	31788	36688	30044
1568	0	31800	36780	29948
1569	0	31732	36696	30008
1570	0	31696	36544	30100
1571	0	31708	36464	30128
1572	0	31784	36388	30124
1573	0	31824	36396	30056
1574	0	31868	36357	30016
1575	0	31904	36364	29968
1576	0	31920	36456	29936
1577	0	31984	36336	29920
1578	0	32024	36404	29912
1579	0	32048	36432	29884
1580	0	32108	36364	29852
1581	0	32128	36320	29868
1582	0	32144	36348	29888
1583	0	32132	36448	29913
1584	0	32120	36440	29932
1585	0	32140	36340	29908
1586	0	32120	36376	29928
1587	0	32112	36568	29937
1588	0	32112	36560	29952
1589	0	32120	36700	29956
1590	0	32192	37136	30012
1591	0	32192	37460	30104
1592	0	32204	37376	30136
1593	0	32208	37236	30132
1594	0	32212	37004	30076
1595	0	32232	36756	30052
1596	0	32236	36653	30064
1597	0	32228	36628	30088
1598	0	32264	36660	30092
1599	0	32300	36772	30108
1600	0	32336	36824	30129
1601	0	32364	36812	30136
1602	0	32392	36816	30124
1603	0	32408	36792	30124
1604	0	32400	36724	30112
1605	0	32374	36644	30128
1606	0	32348	36660	30132
1607	0	32296	36648	30160
1608	0	32240	36656	30168
1609	0	32176	36620	30192
1610	0	32096	36536	30188
1611	0	32028	36512	30216
1612	0	31964	36460	30208
1613	0	31936	36408	30237
1614	0	31888	36396	30248
1615	0	31848	36400	30252
1616	0	31820	36336	30232
1617	0	31796	36240	30238
1618	0	31760	36168	30197
1619	0	31724	36032	30224
1620	0	31712	36032	30204
1621	0	31716	36084	30200
1622	0	31728	36148	30264
1623	0	31728	36148	30304
1624	0	31736	36196	30288
1625	0	31708	36208	30300
1626	0	31716	36216	30276
1627	0	31688	36416	30337
1628	0	31720	36412	30392
1629	0	31740	36456	30409
1630	0	31744	36416	30384
1631	0	31744	36424	30348
1632	0	31752	36440	30420
1633	0	31748	36276	30456
1634	0	31768	36268	30436
1635	0	31789	36344	30424
1636	0	31816	36312	30432
1637	0	31832	36373	30424
1638	0	31868	36384	30488
1639	0	31872	36400	30456
1640	0	31888	36424	30464
1641	0	31908	36504	30456
1642	0	31924	36624	30520
1643	0	31904	36632	30525
1644	0	31888	36604	30496
1645	0	31880	36624	30536
1646	0	31832	36565	30512
1647	0	31836	36620	30524
1648	0	31816	36576	30542
1649	0	31808	36600	30460
1650	0	31808	36720	30484
1651	0	31820	36816	30484
1652	0	31816	36848	30536
1653	0	31764	36824	30504
1654	0	31728	36804	30492
1655	0	31688	36860	30468
1656	0	31676	36856	30512
1657	0	31660	36864	30504
1658	0	31636	36848	30496
1659	0	31624	36888	30493
1660	0	31588	36864	30468
1661	0	31588	36812	30452
1662	0	31568	36952	30444
1663	0	31552	36988	30456
1664	0	31500	36908	30464
1665	0	31496	37056	30444
1666	0	31472	37041	30452
1667	0	31424	37056	30460
1668	0	31420	37118	30512
1669	0	31388	37108	30544
1670	0	31376	37108	30540
1671	0	31376	37228	30560
1672	0	31356	37176	30576
1673	0	31304	37124	30598
1674	0	31296	37196	30604
1675	0	31284	37229	30648
1676	0	31216	37156	30644
1677	0	31224	37240	30648
1678	0	31209	37204	30624
1679	0	31192	37148	30624
1680	0	31172	37117	30636
1681	0	31197	37164	30632
1682	0	31176	37054	30672
1683	0	31184	37036	30648
1684	0	31200	36968	30669
1685	0	31208	36944	30696
1686	0	31200	36992	30688
1687	0	31196	36925	30684
1688	0	31217	36904	30700
1689	0	31236	36864	30732
1690	0	31248	36812	30756
1691	0	31260	36780	30756
1692	0	31280	36764	30752
1693	0	31344	36728	30752
1694	0	31368	36680	30748
1695	0	31424	36704	30712
1696	0	31460	36728	30716
1697	0	31500	36756	30768
1698	0	31520	36756	30792
1699	0	31540	36732	30813
1700	0	31544	36716	30831
1701	0	31548	36692	30908
1702	0	31552	36668	30924
1703	0	31556	36644	30924
1704	0	31564	36616	30884
1705	0	31584	36588	30812
1706	0	31624	36560	30780
1707	0	31660	36564	30764
1708	0	31724	36589	30736
1709	0	31768	36616	30728
1710	0	31816	36624	30740
1711	0	31825	36644	30760
1712	0	31808	36672	30768
1713	0	31792	36697	30776
1714	0	31780	36728	30804
1715	0	31768	36736	30776
1716	0	31752	36740	30752
1717	0	31720	36772	30748
1718	0	31712	36804	30720
1719	0	31688	36856	30724
1720	0	31676	36864	30708
1721	0	31648	36920	30736
1722	0	31624	36932	30696
1723	0	31608	36960	30728
1724	0	31592	36988	30756
1725	0	31568	36989	30760
1726	0	31545	37000	30784
1727	0	31524	36996	30760
1728	0	31492	37012	30748
1729	0	31492	37020	30752
1730	0	31476	37016	30760
1731	0	31476	37020	30784
1732	0	31432	37032	30752
1733	0	31416	37021	30744
1734	0	31416	37016	30728
1735	0	31392	37012	30724
1736	0	31388	37020	30728
1737	0	31376	37004	30740
1738	0	31380	37024	30764
1739	0	31352	37028	30776
1740	0	31344	37024	30792
1741	0	31344	37016	30788
1742	0	31344	37016	30788
1743	0	31340	37020	30816
1744	0	31344	37004	30824
1745	0	31332	37004	30845
1746	0	31328	37008	30852
1747	0	31352	37004	30868
1748	0	31368	37008	30870
1749	0	31392	36996	30877
1750	0	31408	37020	30892
1751	0	31429	37044	30896
1752	0	31448	37044	30920
1753	0	31456	37056	30932
1754	0	31460	37032	30920
1755	0	31460	37040	30914
1756	0	31464	37024	30912
1757	0	31460	37016	30920
1758	0	31468	36996	30928
1759	0	31460	36976	30932
1760	0	31444	36964	30932
1761	0	31416	36964	30913
1762	0	31416	36944	30912
1763	0	31416	36948	30928
1764	0	31408	36932	30924
1765	0	31400	36936	30905
1766	0	31392	36936	30896
1767	0	31384	36952	30892
1768	0	31385	36948	30909
1769	0	31388	36965	30936
1770	0	31384	36988	30920
1771	0	31368	37005	30940
1772	0	31372	37012	30933
1773	0	31376	37032	30936
1774	0	31364	37056	30920
1775	0	31360	37080	30916
1776	0	31356	37080	30928
1777	0	31336	37084	30932
1778	0	31332	37100	30956
1779	0	31344	37124	30944
1780	0	31336	37112	30928
1781	0	31336	37116	30920
1782	0	31344	37120	30912
1783	0	31352	37137	30941
1784	0	31336	37152	30928
1785	0	31336	37156	30948
1786	0	31328	37176	30988
1787	0	31316	37192	31060
1788	0	31292	37184	31085
1789	0	31272	37156	31046
1790	0	31284	37124	30970
1791	0	31328	37124	30964
1792	0	31388	37145	30974
1793	0	31456	37156	30916
1794	0	31520	37164	30885
1795	0	31560	37176	30864
1796	0	31624	37156	30892
1797	0	31676	37128	30884
1798	0	31720	37100	30872
1799	0	31772	37076	30860
1800	0	31792	37056	30876
1801	0	31812	37028	30872
1802	0	31828	37020	30904
1803	0	31857	36997	30924
1804	0	31864	36964	30917
1805	0	31872	36944	30940
1806	0	31856	36932	30968
1807	0	31824	36944	30996
1808	0	31796	36932	31000
1809	0	31772	36924	31044
1810	0	31728	36924	31046
1811	0	31704	36920	31064
1812	0	31664	36936	31084
1813	0	31640	36924	31092
1814	0	31624	36916	31060
1815	0	31608	36904	31045
1816	0	31596	36908	31024
1817	0	31584	36920	31048
1818	0	31582	36916	31048
1819	0	31580	36936	31049
1820	0	31584	36932	31060
1821	0	31584	36948	31060
1822	0	31576	36949	31056
1823	0	31580	36968	31028
1824	0	31584	36976	31032
1825	0	31592	37000	31016
1826	0	31600	37028	30988
1827	0	31608	37028	30996
1828	0	31608	37048	30968
1829	0	31592	37076	30992
1830	0	31596	37092	31008
1831	0	31580	37104	30989
1832	0	31580	37116	30977
1833	0	31568	37116	31012
1834	0	31556	37120	31001
1835	0	31544	37136	31012
1836	0	31520	37148	30992
1837	0	31528	37140	30984
1838	0	31532	37152	30996
1839	0	31528	37160	30980
1840	0	31532	37168	30984
1841	0	31532	37164	30972
1842	0	31512	37160	30980
1843	0	31488	37148	30976
1844	0	31496	37132	30980
1845	0	31480	37120	30965
1846	0	31472	37108	30960
1847	0	31456	37092	30952
1848	0	31452	37092	30956
1849	0	31440	37080	30952
1850	0	31432	37080	30924
1851	0	31440	37080	30929
1852	0	31440	37064	30924
1853	0	31432	37060	30912
1854	0	31452	37072	30936
1855	0	31460	37064	30925
1856	0	31460	37092	30964
1857	0	31456	37104	30997
1858	0	31460	37096	31000
1859	0	31472	37092	31004
1860	0	31476	37100	31030
1861	0	31492	37084	31050
1862	0	31480	37079	31048
1863	0	31480	37060	31049
1864	0	31472	37064	31064
1865	0	31476	37036	31040
1866	0	31496	37024	31072
1867	0	31504	37012	31056
1868	0	31512	37020	31048
1869	0	31524	37008	31072
1870	0	31524	37000	31072
1871	0	31544	36992	31064
1872	0	31556	36976	31072
1873	0	31560	36960	31057
1874	0	31600	36964	31060
1875	0	31608	36956	31048
1876	0	31660	36960	31080
1877	0	31660	36976	31100
1878	0	31660	36948	31064
1879	0	31680	36920	31068
1880	0	31688	36916	31064
1881	0	31696	36904	31072
1882	0	31728	36880	31120
1883	0	31752	36868	31116
1884	0	31768	36868	31108
1885	0	31776	36880	31116
1886	0	31788	36881	31128
1887	0	31800	36884	31160
1888	0	31804	36872	31164
1889	0	31816	36860	31160
1890	0	31808	36840	31172
1891	0	31800	36832	31180
1892	0	31796	36828	31184
1893	0	31772	36820	31192
1894	0	31753	36832	31188
1895	0	31742	36848	31200
1896	0	31732	36868	31204
1897	0	31752	36884	31208
1898	0	31736	36896	31200
1899	0	31748	36920	31213
1900	0	31744	36924	31197
1901	0	31732	36956	31192
1902	0	31728	36996	31180
1903	0	31712	37024	31184
1904	0	31716	37052	31192
1905	0	31716	37093	31216
1906	0	31756	37112	31240
1907	0	31748	37160	31256
1908	0	31772	37208	31264
1909	0	31784	37256	31280
1910	0	31780	37304	31344
1911	0	31760	37344	31373
1912	0	31744	37380	31364
1913	0	31716	37368	31280
1914	0	31740	37352	31272
1915	0	31776	37396	31264
1916	0	31820	37416	31216
1917	0	31852	37428	31176
1918	0	31876	37444	31140
1919	0	31872	37448	31108
1920	0	31864	37420	31076
1921	0	31872	37404	31060
1922	0	31868	37364	31052
1923	0	31860	37336	31060
1924	0	31852	37300	31048
1925	0	31853	37245	31040
1926	0	31852	37228	31020
1927	0	31860	37224	31048
1928	0	31852	37228	31044
1929	0	31848	37232	31040
1930	0	31832	37232	31076
1931	0	31808	37228	31088
1932	0	31792	37248	31116
1933	0	31792	37276	31116
1934	0	31784	37296	31120
1935	0	31760	37332	31148
1936	0	31740	37388	31176
1937	0	31716	37432	31184
1938	0	31700	37452	31200
1939	0	31680	37480	31220
1940	0	31656	37504	31276
1941	0	31644	37524	31296
1942	0	31636	37520	31288
1943	0	31616	37528	31304
1944	0	31612	37532	31284
1945	0	31592	37560	31196
1946	0	31560	37540	31196
1947	0	31552	37512	31188
1948	0	31520	37476	31256
1949	0	31528	37428	31236
1950	0	31540	37440	31188
1951	0	31512	37464	31196
1952	0	31512	37416	31224
1953	0	31480	37448	31196
1954	0	31472	37424	31208
1955	0	31468	37400	31176
1956	0	31456	37388	31216
1957	0	31432	37368	31208
1958	0	31432	37368	31288
1959	0	31452	37345	31264
1960	0	31488	37308	31224
1961	0	31536	37356	31260
1962	0	31532	37376	31304
1963	0	31564	37384	31316
1964	0	31532	37373	31348
1965	0	31552	37293	31276
1966	0	31568	37312	31328
1967	0	31584	37320	31408
1968	0	31592	37300	31424
1969	0	31616	37272	31457
1970	0	31640	37232	31508
1971	0	31680	37192	31508
1972	0	31736	37224	31512
1973	0	31768	37252	31508
1974	0	31752	37276	31536
1975	0	31764	37288	31532
1976	0	31772	37264	31440
1977	0	31740	37236	31528
1978	0	31740	37212	31609
1979	0	31764	37188	31614
1980	0	31752	37220	31608
1981	0	31768	37152	31609
1982	0	31765	37152	31652
1983	0	31764	37176	31716
1984	0	31752	37152	31729
1985	0	31760	37148	31752
1986	0	31756	37120	31760
1987	0	31744	37108	31752
1988	0	31756	37096	31756
1989	0	31764	37080	31764
1990	0	31752	37100	31808
1991	0	31768	37092	31812
1992	0	31768	37109	31820
1993	0	31780	37120	31812
1994	0	31776	37140	31816
1995	0	31764	37160	31808
1996	0	31756	37152	31816
1997	0	31736	37168	31840
1998	0	31736	37168	31840
1999	0	31740	37156	31852
2000	0	31736	37168	31856
2001	0	31768	37192	31816
2002	0	31768	37220	31824
2003	0	31772	37220	31854
2004	0	31776	37228	31856
2005	0	31792	37256	31844
2006	0	31808	37264	31828
2007	0	31812	37256	31848
2008	0	31808	37272	31864
2009	0	31808	37272	31852
2010	0	31812	37284	31876
2011	0	31824	37288	31880
2012	0	31828	37300	31876
2013	0	31860	37312	31872
2014	0	31872	37312	31868
2015	0	31888	37320	31884
2016	0	31904	37324	31916
2017	0	31924	37340	31928
2018	0	31928	37348	31940
2019	0	31944	37356	31905
2020	0	31952	37356	31900
2021	0	31948	37356	31916
2022	0	31964	37360	31901
2023	0	31968	37364	31880
2024	0	31968	37364	31896
2025	0	31952	37348	31896
2026	0	31932	37340	31876
2027	0	31929	37332	31892
2028	0	31912	37344	31900
2029	0	31912	37328	31896
2030	0	31912	37360	31928
2031	0	31896	37360	31944
2032	0	31896	37400	31937
2033	0	31872	37404	31900
2034	0	31856	37380	31864
2035	0	31848	37376	31880
2036	0	31836	37374	31892
2037	0	31848	37384	31920
2038	0	31868	37408	31888
2039	0	31896	37436	31864
2040	0	31904	37452	31849
2041	0	31932	37416	31860
2042	0	31944	37412	31860
2043	0	31960	37416	31856
2044	0	31964	37404	31824
2045	0	31980	37396	31800
2046	0	31976	37400	31808
2047	0	31960	37392	31821
2048	0	31952	37392	31832
2049	0	31952	37384	31836
2050	0	31956	37377	31840
2051	0	31952	37392	31824
2052	0	31952	37412	31792
2053	0	31920	37440	31784
2054	0	31880	37456	31816
2055	0	31864	37468	31833
2056	0	31832	37504	31852
2057	0	31784	37544	31868
2058	0	31756	37544	31882
2059	0	31724	37560	31900
2060	0	31696	37584	31952
2061	0	31688	37600	31976
2062	0	31680	37592	32020
2063	0	31688	37592	31976
2064	0	31668	37598	31948
2065	0	31680	37596	31944
2066	0	31664	37592	31960
2067	0	31664	37592	31968
2068	0	31640	37568	32004
2069	0	31664	37540	32012
2070	0	31680	37548	31956
2071	0	31668	37544	31940
2072	0	31672	37512	31956
2073	0	31672	37492	31956
2074	0	31668	37492	31964
2075	0	31684	37456	31952
2076	0	31652	37424	31988
2077	0	31645	37436	32036
2078	0	31664	37440	32037
2079	0	31680	37450	32033
2080	0	31680	37432	32064
2081	0	31688	37440	32117
2082	0	31705	37448	32160
2083	0	31705	37464	32172
2084	0	31740	37465	32148
2085	0	31752	37484	32216
2086	0	31752	37464	32200
2087	0	31764	37484	32192
2088	0	31768	37472	32176
2089	0	31752	37456	32152
2090	0	31768	37425	32148
2091	0	31732	37380	32212
2092	0	31748	37360	32208
2093	0	31764	37368	32212
2094	0	31768	37360	32192
2095	0	31760	37376	32220
2096	0	31776	37368	32157
2097	0	31768	37360	32232
2098	0	31776	37344	32240
2099	0	31788	37344	32229
2100	0	31796	37352	32260
2101	0	31800	37368	32272
2102	0	31816	37400	32260
2103	0	31840	37428	32232
2104	0	31832	37440	32224
2105	0	31812	37420	32256
2106	0	31812	37408	32280
2107	0	31816	37432	32288
2108	0	31800	37436	32284
2109	0	31804	37436	32272
2110	0	31768	37436	32332
2111	0	31740	37396	32340
2112	0	31732	37392	32332
2113	0	31728	37416	32320
2114	0	31704	37408	32320
2115	0	31688	37412	32296
2116	0	31680	37408	32268
2117	0	31680	37400	32296
2118	0	31684	37428	32284
2119	0	31680	37428	32249
2120	0	31689	37428	32268
2121	0	31700	37440	32256
2122	0	31708	37460	32284
2123	0	31708	37484	32272
2124	0	31724	37480	32304
2125	0	31736	37480	32288
2126	0	31772	37496	32301
2127	0	31788	37524	32284
2128	0	31800	37556	32284
2129	0	31816	37544	32300
2130	0	31800	37552	32288
2131	0	31800	37544	32285
2132	0	31792	37544	32300
2133	0	31784	37544	32284
2134	0	31776	37552	32281
2135	0	31764	37568	32281
2136	0	31756	37580	32285
2137	0	31740	37596	32304
2138	0	31732	37608	32304
2139	0	31724	37636	32356
2140	0	31716	37645	32380
2141	0	31704	37644	32392
2142	0	31708	37644	32361
2143	0	31728	37624	32392
2144	0	31764	37624	32412
2145	0	31780	37616	32412
2146	0	31808	37616	32413
2147	0	31844	37604	32364
2148	0	31900	37568	32333
2149	0	31944	37540	32360
2150	0	31988	37524	32357
2151	0	32048	37520	32316
2152	0	32068	37532	32333
2153	0	32064	37528	32356
2154	0	32076	37496	32384
2155	0	32072	37500	32392
2156	0	32064	37496	32398
2157	0	32048	37496	32452
2158	0	32040	37516	32452
2159	0	32029	37540	32460
2160	0	32000	37544	32456
2161	0	31984	37536	32480
2162	0	31945	37552	32500
2163	0	31944	37552	32480
2164	0	31932	37553	32480
2165	0	31900	37548	32476
2166	0	31876	37548	32436
2167	0	31864	37568	32412
2168	0	31816	37564	32424
2169	0	31784	37544	32448
2170	0	31760	37540	32456
2171	0	31732	37548	32472
2172	0	31736	37544	32445
2173	0	31712	37544	32440
2174	0	31708	37501	32464
2175	0	31696	37504	32480
2176	0	31684	37524	32472
2177	0	31688	37504	32540
2178	0	31728	37484	32516
2179	0	31752	37520	32488
2180	0	31776	37520	32488
2181	0	31752	37516	32536
2182	0	31764	37508	32592
2183	0	31768	37500	32593
2184	0	31768	37504	32580
2185	0	31768	37500	32609
2186	0	31772	37461	32632
2187	0	31772	37496	32700
2188	0	31764	37500	32704
2189	0	31780	37484	32752
2190	0	31776	37504	32700
2191	0	31773	37488	32744
2192	0	31768	37496	32778
2193	0	31769	37520	32768
2194	0	31780	37536	32749
2195	0	31776	37528	32736
2196	0	31772	37516	32746
2197	0	31784	37516	32724
2198	0	31764	37485	32764
2199	0	31776	37485	32796
2200	0	31776	37516	32772
2201	0	31776	37513	32772
2202	0	31800	37544	32744
2203	0	31776	37588	32796
2204	0	31784	37572	32824
2205	0	31784	37568	32832
2206	0	31780	37576	32846
2207	0	31800	37616	32876
2208	0	31832	37620	32868
2209	0	31840	37652	32872
2210	0	31856	37664	32904
2211	0	31864	37692	32940
2212	0	31864	37688	32988
2213	0	31880	37700	32948
2214	0	31884	37700	32948
2215	0	31892	37728	32992
2216	0	31888	37736	32992
2217	0	31900	37732	32997
2218	0	31888	37724	32988
2219	0	31872	37696	33012
2220	0	31852	37692	33020
2221	0	31848	37708	33000
2222	0	31852	37696	32988
2223	0	31828	37672	32972
2224	0	31840	37668	32960
2225	0	31824	37668	32964
2226	0	31832	37672	32932
2227	0	31812	37648	32912
2228	0	31808	37632	32928
2229	0	31800	37612	32936
2230	0	31808	37632	32964
2231	0	31796	37616	33008
2232	0	31808	37620	32984
2233	0	31824	37616	32960
2234	0	31808	37596	33008
2235	0	31824	37564	33044
2236	0	31848	37548	33060
2237	0	31872	37564	33036
2238	0	31868	37560	33064
2239	0	31876	37556	33076
2240	0	31884	37568	33088
2241	0	31896	37560	33069
2242	0	31888	37564	33088
2243	0	31872	37536	33096
2244	0	31876	37504	33144
2245	0	31872	37488	33120
2246	0	31880	37488	33108
2247	0	31880	37496	33104
2248	0	31864	37440	33128
2249	0	31864	37428	33140
2250	0	31868	37420	33124
2251	0	31860	37404	33124
2252	0	31868	37353	33124
2253	0	31860	37360	33120
2254	0	31864	37332	33140
2255	0	31872	37324	33124
2256	0	31884	37320	33128
2257	0	31888	37276	33136
2258	0	31888	37272	33112
2259	0	31900	37260	33108
2260	0	31896	37248	33104
2261	0	31904	37244	33084
2262	0	31900	37264	33060
2263	0	31900	37268	33064
2264	0	31888	37273	33072
2265	0	31868	37276	33072
2266	0	31872	37284	33052
2267	0	31836	37268	33052
2268	0	31824	37280	33031
2269	0	31804	37268	33057
2270	0	31800	37288	33077
2271	0	31792	37316	33088
2272	0	31784	37316	33116
2273	0	31776	37333	33140
2274	0	31776	37356	33136
2275	0	31776	37368	33133
2276	0	31780	37389	33160
2277	0	31784	37396	33192
2278	0	31776	37416	33204
2279	0	31776	37452	33208
2280	0	31776	37468	33224
2281	0	31796	37484	33217
2282	0	31784	37520	33244
2283	0	31788	37544	33216
2284	0	31780	37550	33216
2285	0	31764	37564	33228
2286	0	31776	37556	33276
2287	0	31788	37588	33284
2288	0	31792	37620	33264
2289	0	31784	37656	33260
2290	0	31780	37704	33296
2291	0	31776	37736	33277
2292	0	31772	37772	33296
2293	0	31760	37796	33292
2294	0	31740	37828	33312
2295	0	31736	37837	33328
2296	0	31736	37868	33328
2297	0	31740	37876	33352
2298	0	31732	37896	33340
2299	0	31736	37896	33308
2300	0	31720	37904	33324
2301	0	31736	37912	33312
2302	0	31728	37920	33292
2303	0	31740	37896	33320
2304	0	31772	37896	33320
2305	0	31796	37880	33340
2306	0	31801	37885	33376
2307	0	31800	37884	33432
2308	0	31840	37872	33396
2309	0	31864	37904	33376
2310	0	31864	37900	33364
2311	0	31876	37896	33372
2312	0	31856	37864	33364
2313	0	31872	37860	33364
2314	0	31856	37856	33336
2315	0	31828	37832	33328
2316	0	31832	37816	33344
2317	0	31816	37796	33328
2318	0	31804	37792	33340
2319	0	31800	37748	33328
2320	0	31808	37728	33304
2321	0	31816	37724	33276
2322	0	31801	37676	33294
2323	0	31792	37628	33320
2324	0	31784	37608	33352
2325	0	31792	37600	33360
2326	0	31816	37596	33344
2327	0	31836	37576	33340
2328	0	31832	37544	33364
2329	0	31832	37516	33352
2330	0	31849	37472	33368
2331	0	31864	37448	33384
2332	0	31864	37400	33428
2333	0	31880	37352	33440
2334	0	31904	37368	33433
2335	0	31936	37408	33412
2336	0	31948	37368	33389
2337	0	31948	37328	33448
2338	0	31944	37320	33504
2339	0	31956	37308	33480
2340	0	31956	37320	33464
2341	0	31952	37268	33468
2342	0	31950	37240	33456
2343	0	31956	37252	33464
2344	0	31944	37248	33444
2345	0	31924	37220	33448
2346	0	31946	37196	33456
2347	0	31948	37220	33500
2348	0	31952	37220	33488
2349	0	31944	37212	33484
2350	0	31952	37200	33436
2351	0	31920	37160	33492
2352	0	31916	37144	33516
2353	0	31928	37156	33492
2354	0	31928	37168	33540
2355	0	31920	37188	33552
2356	0	31936	37204	33548
2357	0	31916	37192	33544
2358	0	31932	37241	33592
2359	0	31928	37252	33608
2360	0	31912	37248	33620
2361	0	31908	37264	33640
2362	0	31884	37278	33644
2363	0	31868	37296	33668
2364	0	31868	37309	33676
2365	0	31868	37364	33656
2366	0	31868	37373	33644
2367	0	31840	37384	33668
2368	0	31828	37384	33684
2369	0	31832	37404	33676
2370	0	31832	37444	33672
2371	0	31808	37448	33668
2372	0	31792	37484	33720
2373	0	31812	37524	33712
2374	0	31828	37533	33732
2375	0	31840	37560	33752
2376	0	31856	37596	33764
2377	0	31856	37616	33772
2378	0	31856	37632	33805
2379	0	31868	37644	33824
2380	0	31888	37672	33855
2381	0	31908	37700	33844
2382	0	31936	37724	33812
2383	0	31928	37736	33812
2384	0	31920	37732	33841
2385	0	31928	37740	33856
2386	0	31920	37732	33876
2387	0	31908	37728	33888
2388	0	31884	37760	33876
2389	0	31868	37760	33884
2390	0	31864	37760	33892
2391	0	31870	37776	33908
2392	0	31860	37772	33876
2393	0	31840	37788	33848
2394	0	31812	37792	33888
2395	0	31804	37800	33896
2396	0	31796	37776	33900
2397	0	31788	37776	33896
2398	0	31788	37772	33928
2399	0	31792	37744	33928
2400	0	31780	37728	33924
2401	0	31776	37712	33924
2402	0	31776	37696	33901
2403	0	31784	37680	33876
2404	0	31796	37652	33864
2405	0	31788	37628	33872
2406	0	31800	37620	33864
2407	0	31796	37608	33844
2408	0	31804	37604	33832
2409	0	31808	37588	33824
2410	0	31780	37568	33812
2411	0	31784	37552	33816
2412	0	31776	37536	33840
2413	0	31792	37520	33856
2414	0	31800	37520	33828
2415	0	31809	37500	33812
2416	0	31816	37480	33817
2417	0	31808	37484	33828
2418	0	31792	37460	33820
2419	0	31812	37456	33808
2420	0	31804	37412	33804
2421	0	31812	37405	33820
2422	0	31808	37388	33840
2423	0	31816	37372	33864
2424	0	31824	37352	33832
2425	0	31828	37332	33840
2426	0	31812	37316	33868
2427	0	31820	37288	33880
2428	0	31816	37268	33884
2429	0	31828	37256	33876
2430	0	31824	37248	33868
2431	0	31848	37208	33864
2432	0	31856	37200	33871
2433	0	31876	37184	33876
2434	0	31880	37172	33856
2435	0	31864	37176	33876
2436	0	31860	37168	33860
2437	0	31860	37160	33880
2438	0	31852	37133	33888
2439	0	31841	37120	33876
2440	0	31848	37112	33888
2441	0	31836	37112	33880
2442	0	31816	37116	33868
2443	0	31816	37120	33856
2444	0	31820	37136	33864
2445	0	31828	37120	33864
2446	0	31824	37120	33872
2447	0	31812	37132	33896
2448	0	31812	37148	33928
2449	0	31812	37160	33920
2450	0	31816	37168	33936
2451	0	31828	37176	33968
2452	0	31844	37200	33968
2453	0	31864	37224	33968
2454	0	31864	37256	34004
2455	0	31880	37296	34004
2456	0	31896	37316	34032
2457	0	31912	37328	34055
2458	0	31924	37352	34061
2459	0	31924	37396	34092
2460	0	31920	37441	34120
2461	0	31932	37468	34156
2462	0	31932	37500	34176
2463	0	31940	37520	34204
2464	0	31944	37564	34200
2465	0	31940	37600	34232
2466	0	31952	37612	34252
2467	0	31960	37632	34252
2468	0	31940	37668	34256
2469	0	31928	37676	34276
2470	0	31936	37668	34265
2471	0	31928	37636	34224
2472	0	31913	37632	34208
2473	0	31888	37640	34172
2474	0	31848	37628	34140
2475	0	31824	37612	34112
2476	0	31796	37604	34100
2477	0	31776	37604	34054
2478	0	31760	37600	34040
2479	0	31764	37576	34028
2480	0	31764	37564	34024
2481	0	31784	37540	34024
2482	0	31776	37552	34012
2483	0	31784	37556	34072
2484	0	31808	37568	34093
2485	0	31821	37568	34125
2486	0	31852	37560	34148
2487	0	31876	37556	34160
2488	0	31896	37552	34180
2489	0	31924	37548	34208
2490	0	31924	37560	34232
2491	0	31956	37528	34236
2492	0	31984	37516	34240
2493	0	31976	37508	34256
2494	0	31992	37508	34280
2495	0	31984	37512	34286
2496	0	32020	37500	34305
2497	0	32020	37488	34336
2498	0	32040	37472	34332
2499	0	32052	37456	34340
2500	0	32056	37425	34321
2501	0	32076	37406	34304
2502	0	32080	37396	34300
2503	0	32080	37396	34308
2504	0	32072	37392	34320
2505	0	32065	37388	34348
2506	0	32064	37376	34336
2507	0	32048	37373	34328
2508	0	32056	37348	34320
2509	0	32048	37333	34320
2510	0	32032	37324	34320
2511	0	32024	37336	34296
2512	0	32012	37320	34276
2513	0	31984	37316	34272
2514	0	31976	37312	34252
2515	0	31968	37292	34224
2516	0	31968	37280	34228
2517	0	31968	37252	34212
2518	0	31976	37240	34204
2519	0	31976	37232	34168
2520	0	31984	37224	34188
2521	0	32000	37208	34192
2522	0	32016	37204	34176
2523	0	32012	37184	34192
2524	0	32024	37176	34203
2525	0	32040	37164	34196
2526	0	32040	37164	34196
2527	0	32040	37160	34192
2528	0	32036	37156	34204
2529	0	32056	37152	34192
2530	0	32056	37148	34204
2531	0	32048	37149	34220
2532	0	32064	37148	34208
2533	0	32048	37148	34204
2534	0	32056	37144	34216
2535	0	32057	37136	34208
2536	0	32068	37128	34240
2537	0	32084	37124	34240
2538	0	32076	37148	34248
2539	0	32088	37144	34252
2540	0	32100	37144	34268
2541	0	32116	37148	34276
2542	0	32124	37148	34280
2543	0	32140	37148	34284
2544	0	32144	37152	34312
2545	0	32152	37188	34325
2546	0	32160	37204	34324
2547	0	32216	37348	34444
2548	0	32292	37600	34836
2549	0	32428	37696	34880
2550	0	32508	37792	35100
2551	0	32512	37824	35040
2552	0	32436	37796	34952
2553	0	32344	37760	34888
2554	0	32240	37720	34808
2555	0	32168	37684	34744
2556	0	32096	37692	34692
2557	0	32048	37688	34672
2558	0	32024	37696	34652
2559	0	31984	37712	34644
2560	0	31956	37752	34656
2561	0	31924	37788	34648
2562	0	31892	37812	34648
2563	0	31880	37860	34628
2564	0	31884	37888	34600
2565	0	31880	37928	34572
2566	0	31900	37944	34480
2567	0	31908	37916	34340
2568	0	31900	37848	34224
2569	0	31848	38012	34264
2570	0	31784	37964	34376
2571	0	31796	37812	34512
2572	0	31824	37736	34620
2573	0	31856	37744	34656
2574	0	31892	37752	34676
2575	0	31904	37748	34684
2576	0	31936	37784	34712
2577	0	31976	37788	34720
2578	0	32004	37780	34720
2579	0	32048	37772	34712
2580	0	32036	37768	34732
2581	0	32049	37780	34740
2582	0	32048	37789	34748
2583	0	32064	37748	34720
2584	0	32040	37724	34692
2585	0	32048	37696	34692
2586	0	32020	37680	34672
2587	0	32000	37676	34648
2588	0	31984	37657	34632
2589	0	31988	37644	34616
2590	0	31984	37636	34584
2591	0	31980	37608	34608
2592	0	32004	37564	34624
2593	0	32004	37561	34608
2594	0	32020	37544	34593
2595	0	32028	37524	34560
2596	0	32040	37500	34580
2597	0	32048	37484	34584
2598	0	32060	37456	34588
2599	0	32076	37416	34544
2600	0	32088	37348	34484
2601	0	32057	37340	34548
2602	0	32044	37361	34600
2603	0	32048	37340	34616
2604	0	32052	37328	34608
2605	0	32048	37304	34589
2606	0	32044	37268	34560
2607	0	32048	37216	34529
2608	0	32056	37168	34520
2609	0	32060	37120	34512
2610	0	32068	37096	34464
2611	0	32064	37068	34452
2612	0	32076	37056	34456
2613	0	32076	37040	34500
2614	0	32088	37041	34500
2615	0	32112	37020	34500
2616	0	32124	37040	34516
2617	0	32220	37064	34488
2618	0	32624	37149	34337
2619	0	32568	37184	34328
2620	0	32272	37084	34636
2621	0	32184	37016	34712
2622	0	32164	36984	34732
2623	0	32200	36964	34716
2624	0	32228	36980	34724
2625	0	32193	36972	34756
2626	0	32136	36956	34816
2627	0	32112	36928	34816
2628	0	32084	36912	34828
2629	0	32032	36896	34820
2630	0	32036	36896	34812
2631	0	32000	36900	34841
2632	0	31992	36909	34852
2633	0	31996	36920	34816
2634	0	32009	36982	34796
2635	0	32040	37072	34776
2636	0	32028	37096	34740
2637	0	32060	37060	34744
2638	0	32084	37060	34801
2639	0	32120	37060	34848
2640	0	32140	37096	34961
2641	0	32192	37124	34964
2642	0	32224	37152	35004
2643	0	32256	37192	35024
2644	0	32280	37192	35024
2645	0	32292	37216	35044
2646	0	32320	37216	35068
2647	0	32320	37213	35056
2648	0	32328	37208	35072
2649	0	32320	37212	35108
2650	0	32292	37220	35176
2651	0	32280	37224	35140
2652	0	32276	37192	35092
2653	0	32264	37176	35096
2654	0	32240	37172	35084
2655	0	32232	37164	35092
2656	0	32216	37168	35065
2657	0	32192	37172	35084
2658	0	32208	37148	35068
2659	0	32200	37128	35068
2660	0	32192	37112	35060
2661	0	32208	37088	35080
2662	0	32220	37056	35100
2663	0	32224	37060	35132
2664	0	32252	37040	35112
2665	0	32268	37024	35088
2666	0	32284	37004	35084
2667	0	32292	36989	35104
2668	0	32312	36988	35124
2669	0	32317	36989	35124
2670	0	32320	36988	35132
2671	0	32336	36976	35140
2672	0	32328	36972	35184
2673	0	32324	36968	35168
2674	0	32316	36980	35192
2675	0	32320	36991	35212
2676	0	32304	36996	35204
2677	0	32304	36984	35204
2678	0	32296	36988	35180
2679	0	32292	36996	35180
2680	0	32288	36996	35160
2681	0	32300	37004	35168
2682	0	32308	37016	35180
2683	0	32309	37028	35204
2684	0	32304	37054	35176
2685	0	32316	37064	35208
2686	0	32340	37084	35216
2687	0	32344	37103	35232
2688	0	32332	37124	35256
2689	0	32320	37148	35260
2690	0	32328	37144	35293
2691	0	32336	37160	35276
2692	0	32304	37188	35264
2693	0	32288	37189	35268
2694	0	32272	37196	35272
2695	0	32248	37200	35248
2696	0	32236	37212	35213
2697	0	32272	37148	35048
2698	0	32220	37105	34948
2699	0	32176	37068	34856
2700	0	32140	37044	34800
2701	0	32104	37040	34792
2702	0	32064	37036	34793
2703	0	32044	37012	34800
2704	0	32028	37024	34804
2705	0	32012	37044	34837
2706	0	31988	37080	34900
2707	0	32008	37084	34984
2708	0	32040	37108	35040
2709	0	32076	37144	35124
2710	0	32132	37168	35224
2711	0	32192	37184	35288
2712	0	32256	37204	35309
2713	0	32328	37216	35352
2714	0	32376	37240	35348
2715	0	32368	37244	35328
2716	0	32396	37228	35296
2717	0	32364	37212	35232
2718	0	32408	37208	35252
2719	0	32400	37212	35232
2720	0	32376	37208	35200
2721	0	32348	37204	35172
2722	0	32312	37224	35160
2723	0	32304	37188	35192
2724	0	32312	37212	35196
2725	0	32280	37196	35176
2726	0	32320	37184	35172
2727	0	32312	37180	35116
2728	0	32288	37184	35116
2729	0	32280	37188	35164
2730	0	32277	37192	35181
2731	0	32296	37212	35236
2732	0	32300	37220	35264
2733	0	32316	37121	35164
2734	0	32352	37032	35156
2735	0	32384	36972	35184
2736	0	32432	36936	35172
2737	0	32468	36916	35192
2738	0	32512	36904	35196
2739	0	32536	36910	35208
2740	0	32552	36917	35280
2741	0	32608	36948	35244
2742	0	32592	36940	35208
2743	0	32600	36896	35216
2744	0	32616	36888	35244
2745	0	32616	36864	35240
2746	0	32584	36876	35240
2747	0	32600	36840	35260
2748	0	32600	36856	35300
2749	0	32580	36868	35332
2750	0	32608	36872	35384
2751	0	32616	36892	35389
2752	0	32624	36896	35400
2753	0	32636	36896	35372
2754	0	32624	36904	35372
2755	0	32612	36888	35376
2756	0	32636	36884	35392
2757	0	32648	36840	35472
2758	0	32672	36864	35524
2759	0	32660	36892	35525
2760	0	32688	36872	35528
2761	0	32688	36896	35524
2762	0	32640	36920	35520
2763	0	32612	36908	35552
2764	0	32632	36921	35513
2765	0	32588	36912	35536
2766	0	32556	36916	35492
2767	0	32528	36880	35476
2768	0	32548	36876	35477
2769	0	32520	36856	35488
2770	0	32508	36840	35436
2771	0	32504	36844	35468
2772	0	32464	36864	35420
2773	0	32440	36852	35424
2774	0	32436	36852	35452
2775	0	32436	36824	35448
2776	0	32448	36828	35520
2777	0	32460	36830	35536
2778	0	32472	36840	35552
2779	0	32476	36844	35568
2780	0	32464	36872	35576
2781	0	32492	36860	35592
2782	0	32496	36864	35592
2783	0	32508	36873	35616
2784	0	32488	36892	35604
2785	0	32480	36893	35636
2786	0	32480	36904	35700
2787	0	32488	36916	35736
2788	0	32480	36948	35784
2789	0	32488	36952	35800
2790	0	32473	36964	35808
2791	0	32480	36964	35812
2792	0	32472	36948	35824
2793	0	32472	36952	35864
2794	0	32464	36968	35912
2795	0	32480	36988	35952
2796	0	32496	36980	35992
2797	0	32528	36964	35912
2798	0	32496	36976	35832
2799	0	32524	36944	35780
2800	0	32520	36972	35728
2801	0	32520	36968	35748
2802	0	32524	36984	35780
2803	0	32513	36988	35864
2804	0	32524	36968	35888
2805	0	32512	36988	35888
2806	0	32512	36976	35956
2807	0	32540	36976	35920
2808	0	32552	36972	35856
2809	0	32536	37008	35960
2810	0	32544	37004	36076
2811	0	32528	37016	36176
2812	0	32560	37012	36096
2813	0	32580	37032	35992
2814	0	32544	37024	35980
2815	0	32544	37016	36032
2816	0	32556	37016	36036
2817	0	32544	37000	36032
2818	0	32580	36992	35896
2819	0	32516	37008	35886
2820	0	32496	36988	35952
2821	0	32480	36972	36096
2822	0	32480	36980	36177
2823	0	32516	36964	36120
2824	0	32516	36948	36076
2825	0	32504	36921	36016
2826	0	32512	36896	36048
2827	0	32520	36888	36064
2828	0	32528	36844	36160
2829	0	32536	36840	36304
2830	0	32609	36780	36416
2831	0	32592	36740	36408
2832	0	32648	36676	36376
2833	0	32648	36672	36200
2834	0	32576	36732	36020
2835	0	32508	36692	36120
2836	0	32489	36732	36124
2837	0	32448	36736	36132
2838	0	32436	36724	36192
2839	0	32416	36733	36344
2840	0	32380	36776	36316
2841	0	32376	36760	36204
2842	0	32372	36813	36116
2843	0	32276	36868	36080
2844	0	32292	36820	36124
2845	0	32280	36852	36096
2846	0	32224	36868	36096
2847	0	32332	36880	35860
2848	0	32244	36812	35876
2849	0	32096	36760	36132
2850	0	31984	36752	36232
2851	0	32144	36912	36220
2852	0	32161	36833	36252
2853	0	32104	36764	36252
2854	0	32156	36753	36288
2855	0	32064	36764	36236
2856	0	32204	36808	36148
2857	0	32200	36716	36068
2858	0	32208	36664	36053
2859	0	32288	36640	36172
2860	0	32244	36624	36252
2861	0	32184	36644	36172
2862	0	32260	36633	36164
2863	0	32312	36560	36208
2864	0	32324	36516	36288
2865	0	32244	36528	36268
2866	0	32290	36532	36320
2867	0	32296	36504	36424
2868	0	32264	36448	36464
2869	0	32224	36384	36444
2870	0	32208	36348	36448
2871	0	32176	36332	36444
2872	0	32184	36340	36412
2873	0	32192	36308	36424
2874	0	32157	36328	36416
2875	0	32176	36312	36408
2876	0	32164	36272	36384
2877	0	32160	36252	36424
2878	0	32160	36236	36408
2879	0	32164	36213	36464
2880	0	32192	36196	36504
2881	0	32192	36180	36492
2882	0	32200	36152	36440
2883	0	32212	36148	36464
2884	0	32208	36116	36464
2885	0	32224	36076	36456
2886	0	32264	36056	36420
2887	0	32276	36056	36428
2888	0	32268	36040	36468
2889	0	32296	36000	36468
2890	0	32288	36020	36520
2891	0	32296	36004	36544
2892	0	32312	35980	36524
2893	0	32296	35976	36532
2894	0	32276	35972	36516
2895	0	32256	35960	36548
2896	0	32240	35934	36544
2897	0	32220	35900	36564
2898	0	32208	35884	36572
2899	0	32264	35656	36641
2900	0	32408	35344	36812
2901	0	32424	35520	36584
2902	0	32388	35660	36400
2903	0	32324	35748	36312
2904	0	32244	35748	36400
2905	0	32180	35780	36472
2906	0	32204	35752	36540
2907	0	32172	35768	36492
2908	0	32144	35784	36472
2909	0	32128	35764	36484
2910	0	32112	35744	36504
2911	0	32116	35744	36600
2912	0	32104	35768	36604
2913	0	32104	35752	36624
2914	0	32108	35704	36660
2915	0	32089	35710	36616
2916	0	32092	35752	36672
2917	0	32120	35768	36708
2918	0	32152	35704	36784
2919	0	32168	35704	36808
2920	0	32192	35668	36840
2921	0	32240	35612	36864
2922	0	32244	35600	36840
2923	0	32232	35640	36816
2924	0	32236	35592	36844
2925	0	32256	35632	36872
2926	0	32248	35568	36884
2927	0	32252	35520	36940
2928	0	32248	35580	36872
2929	0	32244	35556	36908
2930	0	32224	35544	36872
2931	0	32236	35464	36952
2932	0	32237	35476	36984
2933	0	32249	35480	36964
2934	0	32224	35492	36944
2935	0	32216	35460	36976
2936	0	32192	35484	37000
2937	0	32208	35400	37044
2938	0	32208	35376	37048
2939	0	32228	35336	37052
2940	0	32220	35356	37056
2941	0	32220	35353	37088
2942	0	32224	35348	37108
2943	0	32208	35344	37148
2944	0	32188	35376	37136
2945	0	32196	35352	37136
2946	0	32188	35344	37136
2947	0	32184	35344	37168
2948	0	32180	35322	37200
2949	0	32160	35320	37196
2950	0	32192	35278	37228
2951	0	32200	35240	37232
2952	0	32212	35200	37213
2953	0	32224	35200	37244
2954	0	32204	35216	37240
2955	0	32196	35209	37312
2956	0	32212	35196	37288
2957	0	32220	35192	37308
2958	0	32220	35176	37328
2959	0	32168	35204	37292
2960	0	32168	35236	37320
2961	0	32144	35216	37360
2962	0	32152	35176	37380
2963	0	32164	35164	37404
2964	0	32184	35109	37408
2965	0	32176	35100	37400
2966	0	32216	35080	37448
2967	0	32232	35064	37488
2968	0	32228	35040	37440
2969	0	32232	35024	37456
2970	0	32220	34996	37476
2971	0	32244	34984	37460
2972	0	32256	34976	37492
2973	0	32280	34980	37473
2974	0	32256	34928	37468
2975	0	32284	34932	37468
2976	0	32300	34900	37444
2977	0	32276	34916	37420
2978	0	32280	34836	37460
2979	0	32272	34876	37436
2980	0	32304	34848	37452
2981	0	32318	34796	37464
2982	0	32324	34764	37460
2983	0	32356	34748	37456
2984	0	32340	34756	37448
2985	0	32352	34736	37480
2986	0	32344	34696	37504
2987	0	32356	34724	37476
2988	0	32344	34700	37492
2989	0	32356	34672	37488
2990	0	32336	34689	37508
2991	0	32352	34680	37533
2992	0	32365	34648	37488
2993	0	32372	34644	37528
2994	0	32356	34624	37556
2995	0	32368	34588	37536
2996	0	32376	34576	37528
2997	0	32400	34620	37540
2998	0	32424	34584	37548
2999	0	32436	34544	37564
3000	0	32424	34526	37560
3001	0	32444	34553	37576
3002	0	32444	34536	37584
3003	0	32432	34532	37548
3004	0	32440	34500	37588
3005	0	32428	34480	37644
3006	0	32452	34464	37616
3007	0	32457	34488	37584
3008	0	32412	34488	37600
3009	0	32396	34484	37632
3010	0	32392	34464	37700
3011	0	32360	34504	37684
3012	0	32376	34453	37696
3013	0	32372	34413	37696
3014	0	32392	34424	37684
3015	0	32388	34424	37728
3016	0	32392	34388	37752
3017	0	32384	34380	37752
3018	0	32392	34400	37768
3019	0	32392	34352	37784
3020	0	32396	34368	37824
3021	0	32376	34352	37848
3022	0	32344	34368	37844
3023	0	32336	34348	37824
3024	0	32328	34364	37860
3025	0	32328	34348	37860
3026	0	32308	34317	37856
3027	0	32312	34313	37884
3028	0	32320	34304	37916
3029	0	32352	34300	37984
3030	0	32372	34264	38008
3031	0	32404	34252	38044
3032	0	32388	34223	38008
3033	0	32384	34240	38016
3034	0	32376	34240	38032
3035	0	32372	34238	38040
3036	0	32376	34228	38032
3037	0	32380	34232	37980
3038	0	32392	34212	37952
3039	0	32376	34196	37932
3040	0	32348	34240	37936
3041	0	32352	34208	37960
3042	0	32329	34212	37981
3043	0	32340	34144	38020
3044	0	32344	34144	38008
3045	0	32336	34160	38008
3046	0	32312	34160	38008
3047	0	32300	34148	38044
3048	0	32332	34152	38024
3049	0	32340	34160	38036
3050	0	32345	34116	38068
3051	0	32361	34100	38060
3052	0	32392	34032	38052
3053	0	32392	34080	38060
3054	0	32393	34016	38036
3055	0	32400	34032	38032
3056	0	32404	34016	38036
3057	0	32392	33996	38020
3058	0	32384	34028	38000
3059	0	32380	34017	38004
3060	0	32396	34000	37976
3061	0	32424	33991	37984
3062	0	32424	34008	37944
3063	0	32444	34000	37956
3064	0	32448	33988	37948
3065	0	32444	33968	37928
3066	0	32460	33950	37944
3067	0	32448	33952	37936
3068	0	32448	33916	37936
3069	0	32440	33886	37936
3070	0	32448	33928	37900
3071	0	32432	33912	37920
3072	0	32452	33852	37936
3073	0	32464	33856	37916
3074	0	32452	33868	37924
3075	0	32420	33884	37944
3076	0	32412	33892	37936
3077	0	32424	33844	37952
3078	0	32417	33872	37952
3079	0	32416	33876	37968
3080	0	32404	33856	37964
3081	0	32400	33836	37948
3082	0	32412	33824	37948
3083	0	32416	33840	37949
3084	0	32404	33820	37984
3085	0	32416	33804	37980
3086	0	32436	33806	37964
3087	0	32452	33804	37972
3088	0	32448	33784	38000
3089	0	32421	33784	38012
3090	0	32404	33784	38048
3091	0	32424	33788	38032
3092	0	32424	33812	38024
3093	0	32404	33812	38020
3094	0	32400	33792	38028
3095	0	32404	33776	38040
3096	0	32408	33792	38040
3097	0	32384	33784	38020
3098	0	32364	33796	38036
3099	0	32356	33796	38060
3100	0	32329	33809	38064
3101	0	32344	33776	38097
3102	0	32365	33741	38100
3103	0	32404	33704	38104
3104	0	32440	33657	38084
3105	0	32452	33621	38040
3106	0	32452	33606	37992
3107	0	32452	33617	37968
3108	0	32428	33608	37960
3109	0	32424	33600	37948
3110	0	32416	33608	37932
3111	0	32397	33624	37936
3112	0	32372	33636	37932
3113	0	32352	33648	37936
3114	0	32336	33656	37940
3115	0	32328	33656	37928
3116	0	32304	33664	37932
3117	0	32297	33648	37944
3118	0	32288	33656	37952
3119	0	32284	33640	37992
3120	0	32268	33644	37980
3121	0	32272	33640	37984
3122	0	32280	33624	38000
3123	0	32276	33612	38040
3124	0	32272	33600	38072
3125	0	32260	33596	38072
3126	0	32260	33596	38052
3127	0	32276	33588	38040
3128	0	32276	33576	38040
3129	0	32284	33576	38056
3130	0	32304	33576	38080
3131	0	32296	33584	38084
3132	0	32288	33584	38072
3133	0	32292	33580	38080
3134	0	32320	33576	38077
3135	0	32320	33576	38088
3136	0	32320	33576	38116
3137	0	32332	33572	38124
3138	0	32328	33552	38092
3139	0	32320	33560	38116
3140	0	32288	33568	38129
3141	0	32288	33548	38124
3142	0	32280	33532	38136
3143	0	32272	33508	38112
3144	0	32256	33520	38088
3145	0	32256	33508	38092
3146	0	32252	33524	38124
3147	0	32248	33504	38116
3148	0	32240	33496	38088
3149	0	32260	33492	38060
3150	0	32256	33480	38044
3151	0	32272	33468	38048
3152	0	32296	33456	38028
3153	0	32312	33440	37996
3154	0	32332	33428	37988
3155	0	32348	33424	37964
3156	0	32368	33416	37983
3157	0	32376	33404	37964
3158	0	32408	33400	38004
3159	0	32408	33372	38000
3160	0	32408	33360	37980
3161	0	32420	33360	37962
3162	0	32408	33364	37972
3163	0	32416	33384	37996
3164	0	32428	33396	38008
3165	0	32396	33396	37988
3166	0	32388	33372	37960
3167	0	32376	33372	37988
3168	0	32380	33368	38008
3169	0	32372	33368	38020
3170	0	32392	33348	37984
3171	0	32416	33316	37992
3172	0	32412	33300	37996
3173	0	32400	33304	37972
3174	0	32408	33296	37992
3175	0	32376	33304	37980
3176	0	32376	33292	37984
3177	0	32352	33276	37972
3178	0	32376	33268	37932
3179	0	32356	33232	37952
3180	0	32352	33236	37972
3181	0	32356	33212	37972
3182	0	32364	33196	37976
3183	0	32368	33180	37932
3184	0	32360	33180	37928
3185	0	32376	33175	37932
3186	0	32392	33144	37912
3187	0	32408	33148	37916
3188	0	32412	33125	37908
3189	0	32413	33128	37916
3190	0	32424	33116	37872
3191	0	32464	33096	37848
3192	0	32480	33072	37836
3193	0	32476	33040	37804
3194	0	32472	33040	37808
3195	0	32464	33044	37828
3196	0	32448	33036	37872
3197	0	32456	33025	37860
3198	0	32468	33012	37856
3199	0	32484	32990	37864
3200	0	32464	32952	37864
3201	0	32432	32988	37876
3202	0	32408	32964	37944
3203	0	32400	32960	37972
3204	0	32392	32968	37956
3205	0	32380	32960	37952
3206	0	32360	32944	37952
3207	0	32336	32952	37976
3208	0	32328	32952	38008
3209	0	32320	32948	38032
3210	0	32312	32940	38032
3211	0	32312	32916	38049
3212	0	32322	32896	38056
3213	0	32296	32900	38052
3214	0	32264	32900	38080
3215	0	32256	32888	38080
3216	0	32256	32900	38072
3217	0	32236	32892	38084
3218	0	32252	32884	38076
3219	0	32240	32880	38072
3220	0	32228	32864	38084
3221	0	32232	32852	38108
3222	0	32220	32857	38120
3223	0	32218	32864	38104
3224	0	32216	32860	38104
3225	0	32204	32844	38116
3226	0	32216	32844	38104
3227	0	32220	32832	38084
3228	0	32224	32830	38076
3229	0	32240	32816	38068
3230	0	32244	32813	38072
3231	0	32220	32808	38064
3232	0	32224	32804	38104
3233	0	32208	32796	38092
3234	0	32208	32804	38116
3235	0	32204	32788	38132
3236	0	32200	32792	38136
3237	0	32196	32766	38132
3238	0	32180	32772	38100
3239	0	32168	32784	38104
3240	0	32148	32804	38180
3241	0	32136	32824	38212
3242	0	32136	32828	38236
3243	0	32196	32792	38244
3244	0	32208	32780	38234
3245	0	32212	32780	38216
3246	0	32180	32774	38232
3247	0	32168	32744	38268
3248	0	32184	32740	38264
3249	0	32192	32736	38260
3250	0	32164	32696	38292
3251	0	32168	32696	38332
3252	0	32192	32700	38248
3253	0	32196	32696	38184
3254	0	32184	32668	38152
3255	0	32164	32664	38100
3256	0	32152	32640	38072
3257	0	32152	32644	38032
3258	0	32140	32649	38008
3259	0	32140	32649	38016
3260	0	32124	32644	37980
3261	0	32096	32648	37952
3262	0	32093	32656	37934
3263	0	32076	32664	37908
3264	0	32072	32660	37920
3265	0	32060	32652	37948
3266	0	32060	32688	37948
3267	0	32096	32680	37920
3268	0	32116	32640	37888
3269	0	32192	32568	37936
3270	0	32280	32536	37856
3271	0	32392	32580	37744
3272	0	32448	32528	37668
3273	0	32464	32540	37648
3274	0	32420	32592	37636
3275	0	32372	32620	37668
3276	0	32340	32700	37724
3277	0	32300	32720	37796
3278	0	32240	32705	37792
3279	0	32196	32660	37792
3280	0	32148	32636	37756
3281	0	32184	32620	37796
3282	0	32176	32600	37796
3283	0	32192	32588	37864
3284	0	32160	32540	37840
3285	0	32192	32472	37793
3286	0	32260	32466	37772
3287	0	32268	32444	37700
3288	0	32360	32468	37756
3289	0	32352	32476	37776
3290	0	32408	32517	37860
3291	0	32424	32504	37916
3292	0	32412	32540	37934
3293	0	32412	32544	37912
3294	0	32456	32576	38048
3295	0	32432	32584	38084
3296	0	32440	32580	38100
3297	0	32324	32448	37852
3298	0	32392	32444	37808
3299	0	32368	32416	37756
3300	0	32344	32336	37712
3301	0	32348	32396	37728
3302	0	32420	32552	37952
3303	0	32328	32464	38008
3304	0	32318	32469	38044
3305	0	32252	32448	38032
3306	0	32128	32324	37816
3307	0	32212	32456	37884
3308	0	32184	32416	37932
3309	0	32228	32528	38140
3310	0	32172	32496	38296
3311	0	32040	32400	38252
3312	0	32088	32503	38320
3313	0	32080	32485	38344
3314	0	32048	32424	38308
3315	0	32024	32412	38268
3316	0	32000	32392	38220
3317	0	31984	32360	38236
3318	0	31992	32372	38316
3319	0	31964	32372	38344
3320	0	31940	32356	38332
3321	0	31920	32332	38284
3322	0	31952	32324	38208
3323	0	31984	32272	38084
3324	0	32004	32256	37977
3325	0	32053	32248	37888
3326	0	32080	32228	37856
3327	0	32080	32244	37829
3328	0	32080	32252	37868
3329	0	32072	32264	37912
3330	0	32044	32284	37916
3331	0	32020	32300	37928
3332	0	32008	32296	37932
3333	0	32004	32300	37968
3334	0	31964	32300	38000
3335	0	31940	32308	38016
3336	0	31924	32312	38044
3337	0	31928	32320	38040
3338	0	31936	32316	38032
3339	0	31960	32321	38024
3340	0	31968	32312	38036
3341	0	31992	32324	38001
3342	0	32000	32308	38013
3343	0	32004	32328	38004
3344	0	32008	32344	37964
3345	0	32024	32356	37936
3346	0	32040	32388	37916
3347	0	32064	32408	37881
3348	0	32080	32408	37860
3349	0	32104	32404	37840
3350	0	32136	32412	37824
3351	0	32152	32416	37832
3352	0	32156	32444	37844
3353	0	32160	32436	37832
3354	0	32176	32440	37864
3355	0	32168	32456	37880
3356	0	32172	32460	37888
3357	0	32196	32448	37916
3358	0	32204	32448	37945
3359	0	32200	32464	37948
3360	0	32196	32469	37960
3361	0	32216	32460	37981
3362	0	32224	32476	37984
3363	0	32224	32465	37988
3364	0	32232	32464	37984
3365	0	32240	32464	37992
3366	0	32248	32473	37968
3367	0	32240	32472	37980
3368	0	32248	32476	37984
3369	0	32240	32476	37976
3370	0	32248	32480	37984
3371	0	32252	32484	37960
3372	0	32264	32476	37953
3373	0	32256	32476	37988
3374	0	32252	32468	37964
3375	0	32260	32456	37996
3376	0	32272	32460	37992
3377	0	32268	32452	37976
3378	0	32252	32468	37960
3379	0	32252	32449	37952
3380	0	32240	32440	37952
3381	0	32248	32436	37956
3382	0	32244	32428	37932
3383	0	32228	32432	37936
3384	0	32216	32436	37928
3385	0	32224	32412	37908
3386	0	32216	32400	37900
3387	0	32224	32384	37896
3388	0	32224	32368	37897
3389	0	32216	32352	37888
3390	0	32212	32352	37884
3391	0	32200	32344	37884
3392	0	32180	32336	37900
3393	0	32168	32324	37892
3394	0	32156	32328	37868
3395	0	32144	32336	37852
3396	0	32112	32328	37848
3397	0	32112	32332	37864
3398	0	32096	32336	37876
3399	0	32092	32312	37880
3400	0	32104	32292	37872
3401	0	32084	32292	37860
3402	0	32080	32284	37852
3403	0	32084	32280	37856
3404	0	32092	32276	37832
3405	0	32092	32284	37824
3406	0	32072	32292	37800
3407	0	32068	32270	37788
3408	0	32064	32272	37792
3409	0	32072	32268	37772
3410	0	32072	32260	37752
3411	0	32072	32254	37748
3412	0	32068	32240	37736
3413	0	32092	32222	37732
3414	0	32084	32224	37712
3415	0	32076	32240	37724
3416	0	32076	32232	37708
3417	0	32080	32236	37704
3418	0	32088	32244	37720
3419	0	32076	32248	37696
3420	0	32084	32236	37708
3421	0	32088	32228	37692
3422	0	32076	32228	37680
3423	0	32076	32221	37676
3424	0	32068	32224	37672
3425	0	32064	32222	37688
3426	0	32064	32216	37693
3427	0	32072	32204	37693
3428	0	32068	32200	37704
3429	0	32064	32200	37704
3430	0	32049	32192	37724
3431	0	32056	32204	37720
3432	0	32072	32188	37736
3433	0	32052	32196	37732
3434	0	32044	32168	37756
3435	0	32044	32172	37768
3436	0	32048	32176	37784
3437	0	32032	32172	37789
3438	0	32032	32164	37808
3439	0	32040	32160	37836
3440	0	32040	32168	37832
3441	0	32064	32164	37836
3442	0	32064	32168	37844
3443	0	32076	32172	37848
3444	0	32084	32168	37848
3445	0	32100	32164	37864
3446	0	32104	32172	37864
3447	0	32124	32160	37852
3448	0	32136	32164	37869
3449	0	32144	32156	37876
3450	0	32148	32157	37900
3451	0	32132	32160	37912
3452	0	32140	32164	37940
3453	0	32136	32168	37960
3454	0	32144	32170	37988
3455	0	32120	32160	38000
3456	0	32105	32168	38024
3457	0	32084	32172	38044
3458	0	32088	32176	38072
3459	0	32076	32168	38104
3460	0	32072	32156	38116
3461	0	32080	32160	38152
3462	0	32088	32152	38160
3463	0	32096	32136	38184
3464	0	32096	32140	38192
3465	0	32088	32124	38208
3466	0	32084	32120	38208
3467	0	32076	32124	38224
3468	0	32080	32108	38236
3469	0	32080	32097	38248
3470	0	32080	32092	38244
3471	0	32080	32104	38244
3472	0	32076	32108	38216
3473	0	32084	32088	38224
3474	0	32076	32084	38200
3475	0	32077	32092	38192
3476	0	32080	32084	38208
3477	0	32076	32068	38208
3478	0	32081	32056	38208
3479	0	32084	32058	38212
3480	0	32080	32056	38204
3481	0	32084	32048	38184
3482	0	32080	32045	38196
3483	0	32096	32032	38196
3484	0	32072	32044	38177
3485	0	32104	32028	38156
3486	0	32124	32020	38116
3487	0	32128	32008	38056
3488	0	32144	32000	38060
3489	0	32152	32004	38024
3490	0	32160	32008	38016
3491	0	32168	32000	37996
3492	0	32268	32092	37888
3493	0	32424	32100	37332
3494	0	32240	31774	37597
3495	0	31924	31600	38560
3496	0	31676	31848	39096
3497	0	31600	32116	39000
3498	0	31776	32328	38433
3499	0	32076	32356	37680
3500	0	32344	32181	37320
3501	0	32453	31960	37468
3502	0	32416	31896	37672
3503	0	32324	31940	37768
3504	0	32264	32016	37792
3505	0	32256	32068	37833
3506	0	32208	32076	37908
3507	0	32148	32060	37976
3508	0	32068	32080	38000
3509	0	32024	32092	37920
3510	0	32008	32076	37832
3511	0	32020	32041	37780
3512	0	32012	32000	37780
3513	0	32020	31977	37792
3514	0	32017	31996	37820
3515	0	32040	32004	37804
3516	0	32080	32008	37768
3517	0	32092	31994	37748
3518	0	32104	31992	37752
3519	0	32096	31996	37761
3520	0	32080	31980	37761
3521	0	32044	31968	37744
3522	0	32016	31960	37756
3523	0	31972	31925	37772
3524	0	31929	31904	37800
3525	0	31896	31886	37792
3526	0	31880	31880	37792
3527	0	31872	31876	37796
3528	0	31852	31849	37816
3529	0	31840	31837	37816
3530	0	31808	31828	37785
3531	0	31776	31836	37776
3532	0	31784	31832	37792
3533	0	31820	31829	37792
3534	0	31840	31816	37800
3535	0	31840	31820	37759
3536	0	31864	31800	37736
3537	0	31868	31788	37724
3538	0	31873	31788	37712
3539	0	31892	31796	37716
3540	0	31912	31808	37744
3541	0	31924	31812	37752
3542	0	31908	31809	37764
3543	0	31881	31809	37752
3544	0	31880	31792	37740
3545	0	31868	31788	37760
3546	0	31860	31784	37816
3547	0	31844	31776	37852
3548	0	31816	31788	37896
3549	0	31804	31804	37888
3550	0	31796	31808	37872
3551	0	31808	31816	37856
3552	0	31820	31824	37844
3553	0	31840	31832	37820
3554	0	31884	31816	37812
3555	0	31920	31808	37780
3556	0	31928	31808	37768
3557	0	31944	31804	37772
3558	0	31964	31792	37784
3559	0	31968	31780	37823
3560	0	31980	31784	37820
3561	0	31964	31796	37852
3562	0	31984	31776	37840
3563	0	31992	31756	37820
3564	0	32008	31720	37816
3565	0	32036	31712	37804
3566	0	32070	31704	37788
3567	0	32088	31700	37780
3568	0	32108	31700	37736
3569	0	32120	31696	37724
3570	0	32128	31680	37725
3571	0	32144	31692	37740
3572	0	32144	31700	37757
3573	0	32148	31704	37796
3574	0	32136	31716	37832
3575	0	32125	31732	37848
3576	0	32112	31732	37896
3577	0	32084	31740	37896
3578	0	32076	31736	37904
3579	0	32072	31732	37936
3580	0	32068	31716	37968
3581	0	32072	31716	38016
3582	0	32078	31712	38024
3583	0	32061	31700	38032
3584	0	32060	31704	38036
3585	0	32024	31716	38044
3586	0	32024	31716	38044
3587	0	32024	31700	38036
3588	0	32016	31704	38044
3589	0	32009	31708	38028
3590	0	31976	31704	38008
3591	0	31968	31688	38048
3592	0	31932	31696	38072
3593	0	31904	31680	38080
3594	0	31888	31680	38109
3595	0	31864	31664	38124
3596	0	31840	31652	38136
3597	0	31820	31628	38141
3598	0	31776	31632	38124
3599	0	31776	31612	38136
3600	0	31748	31600	38148
3601	0	31748	31596	38156
3602	0	31736	31584	38140
3603	0	31724	31576	38136
3604	0	31712	31568	38140
3605	0	31716	31552	38104
3606	0	31716	31544	38088
3607	0	31712	31544	38049
3608	0	31720	31524	38028
3609	0	31720	31508	38000
3610	0	31725	31512	37980
3611	0	31732	31512	37972
3612	0	31720	31504	37948
3613	0	31728	31496	37932
3614	0	31728	31496	37916
3615	0	31732	31500	37884
3616	0	31736	31492	37880
3617	0	31736	31488	37888
3618	0	31740	31492	37886
3619	0	31744	31480	37877
3620	0	31736	31472	37848
3621	0	31744	31480	37832
3622	0	31736	31484	37824
3623	0	31736	31480	37856
3624	0	31728	31480	37856
3625	0	31728	31484	37824
3626	0	31716	31484	37821
3627	0	31724	31476	37829
3628	0	31716	31472	37840
3629	0	31736	31468	37822
3630	0	31732	31460	37792
3631	0	31728	31464	37785
3632	0	31720	31464	37784
3633	0	31716	31464	37776
3634	0	31724	31460	37772
3635	0	31728	31456	37772
3636	0	31728	31452	37760
3637	0	31736	31456	37748
3638	0	31740	31456	37736
3639	0	31736	31460	37720
3640	0	31748	31464	37712
3641	0	31744	31456	37684
3642	0	31768	31456	37660
3643	0	31785	31456	37636
3644	0	31796	31448	37612
3645	0	31808	31436	37596
3646	0	31808	31440	37564
3647	0	31824	31424	37552
3648	0	31852	31432	37536
3649	0	31848	31436	37540
3650	0	31864	31416	37552
3651	0	31868	31412	37536
3652	0	31864	31418	37536
3653	0	31872	31428	37572
3654	0	31888	31412	37572
3655	0	31888	31420	37580
3656	0	31880	31416	37588
3657	0	31880	31416	37584
3658	0	31876	31416	37604
3659	0	31864	31429	37600
3660	0	31872	31416	37612
3661	0	31884	31424	37624
3662	0	31876	31424	37652
3663	0	31880	31432	37672
3664	0	31880	31424	37660
3665	0	31868	31420	37632
3666	0	31852	31412	37584
3667	0	31832	31408	37532
3668	0	31832	31388	37520
3669	0	31840	31388	37524
3670	0	31844	31388	37536
3671	0	31848	31389	37568
3672	0	31860	31392	37612
3673	0	31844	31384	37656
3674	0	31836	31392	37696
3675	0	31840	31400	37716
3676	0	31832	31400	37740
3677	0	31832	31380	37756
3678	0	31848	31357	37760
3679	0	31832	31336	37780
3680	0	31836	31332	37788
3681	0	31824	31316	37796
3682	0	31816	31308	37828
3683	0	31820	31296	37844
3684	0	31796	31300	37832
3685	0	31808	31300	37820
3686	0	31792	31288	37825
3687	0	31792	31284	37836
3688	0	31792	31276	37832
3689	0	31780	31272	37840
3690	0	31776	31264	37848
3691	0	31772	31260	37845
3692	0	31780	31264	37856
3693	0	31772	31260	37824
3694	0	31760	31272	37800
3695	0	31760	31261	37796
3696	0	31744	31256	37776
3697	0	31736	31244	37796
3698	0	31740	31229	37814
3699	0	31720	31213	37816
3700	0	31724	31192	37824
3701	0	31704	31180	37824
3702	0	31696	31180	37804
3703	0	31680	31168	37788
3704	0	31684	31156	37780
3705	0	31668	31160	37732
3706	0	31680	31144	37708
3707	0	31692	31136	37688
3708	0	31684	31120	37652
3709	0	31696	31100	37652
3710	0	31704	31092	37616
3711	0	31688	31088	37600
3712	0	31672	31088	37608
3713	0	31664	31092	37624
3714	0	31652	31097	37612
3715	0	31636	31088	37600
3716	0	31640	31080	37604
3717	0	31624	31082	37600
3718	0	31640	31072	37632
3719	0	31628	31080	37612
3720	0	31628	31076	37612
3721	0	31656	31056	37613
3722	0	31656	31056	37608
3723	0	31668	31053	37584
3724	0	31672	31048	37588
3725	0	31672	31036	37588
3726	0	31680	31034	37568
3727	0	31688	31040	37544
3728	0	31716	31008	37552
3729	0	31740	31000	37536
3730	0	31744	31000	37524
3731	0	31764	30977	37536
3732	0	31772	30988	37540
3733	0	31788	30988	37560
3734	0	31780	31000	37548
3735	0	31792	31012	37548
3736	0	31784	31028	37560
3737	0	31780	31036	37556
3738	0	31784	31024	37548
3739	0	31800	31021	37552
3740	0	31804	31008	37540
3741	0	31816	31004	37540
3742	0	31836	30996	37516
3743	0	31844	30984	37504
3744	0	31856	30988	37504
3745	0	31864	30984	37504
3746	0	31864	30984	37528
3747	0	31864	31008	37552
3748	0	31832	31028	37564
3749	0	31820	31020	37548
3750	0	31808	31036	37564
3751	0	31784	31040	37608
3752	0	31780	31060	37616
3753	0	31768	31080	37648
3754	0	31772	31080	37640
3755	0	31768	31084	37668
3756	0	31772	31084	37672
3757	0	31768	31088	37696
3758	0	31768	31096	37694
3759	0	31784	31104	37708
3760	0	31792	31116	37688
3761	0	31788	31116	37696
3762	0	31788	31104	37696
3763	0	31776	31098	37712
3764	0	31768	31108	37740
3765	0	31776	31108	37736
3766	0	31776	31096	37752
3767	0	31772	31096	37760
3768	0	31760	31104	37768
3769	0	31776	31096	37784
3770	0	31776	31108	37800
3771	0	31772	31108	37804
3772	0	31772	31104	37816
3773	0	31792	31108	37800
3774	0	31800	31100	37808
3775	0	31812	31108	37820
3776	0	31822	31096	37820
3777	0	31836	31088	37848
3778	0	31828	31100	37852
3779	0	31816	31100	37860
3780	0	31808	31104	37864
3781	0	31804	31104	37869
3782	0	31812	31092	37880
3783	0	31808	31108	37884
3784	0	31804	31108	37888
3785	0	31788	31101	37904
3786	0	31792	31100	37928
3787	0	31776	31092	37944
3788	0	31768	31092	37964
3789	0	31768	31080	37968
3790	0	31760	31076	37976
3791	0	31752	31100	37980
3792	0	31744	31080	37976
3793	0	31752	31088	37956
3794	0	31756	31076	37964
3795	0	31760	31068	37932
3796	0	31744	31072	37896
3797	0	31748	31073	37876
3798	0	31760	31068	37892
3799	0	31772	31060	37876
3800	0	31788	31052	37860
3801	0	31804	31052	37860
3802	0	31808	31040	37824
3803	0	31808	31040	37824
3804	0	31816	31040	37808
3805	0	31828	31068	37785
3806	0	31840	31076	37796
3807	0	31844	31076	37800
3808	0	31848	31096	37788
3809	0	31856	31111	37792
3810	0	31848	31112	37796
3811	0	31860	31124	37784
3812	0	31860	31128	37752
3813	0	31864	31132	37736
3814	0	31856	31156	37728
3815	0	31864	31152	37724
3816	0	31870	31148	37724
3817	0	31872	31152	37688
3818	0	31892	31162	37680
3819	0	31900	31148	37664
3820	0	31912	31149	37652
3821	0	31916	31152	37636
3822	0	31916	31172	37608
3823	0	31928	31176	37584
3824	0	31924	31180	37572
3825	0	31932	31184	37556
3826	0	31916	31168	37544
3827	0	31924	31164	37532
3828	0	31916	31148	37504
3829	0	31896	31160	37508
3830	0	31904	31164	37520
3831	0	31896	31160	37508
3832	0	31864	31164	37529
3833	0	31856	31176	37528
3834	0	31832	31168	37544
3835	0	31820	31168	37540
3836	0	31808	31164	37528
3837	0	31808	31148	37520
3838	0	31808	31132	37520
3839	0	31788	31133	37528
3840	0	31780	31124	37520
3841	0	31768	31112	37536
3842	0	31760	31096	37532
3843	0	31756	31100	37536
3844	0	31740	31072	37544
3845	0	31741	31068	37552
3846	0	31720	31066	37560
3847	0	31712	31052	37572
3848	0	31716	31048	37576
3849	0	31712	31052	37572
3850	0	31704	31024	37588
3851	0	31716	31012	37596
3852	0	31712	31008	37608
3853	0	31712	31008	37608
3854	0	31720	31024	37613
3855	0	31736	31004	37640
3856	0	31736	31008	37648
3857	0	31720	31000	37680
3858	0	31724	30992	37696
3859	0	31712	31000	37721
3860	0	31712	31020	37740
3861	0	31716	31009	37742
3862	0	31716	31012	37740
3863	0	31712	31012	37740
3864	0	31720	31008	37764
3865	0	31712	31016	37772
3866	0	31704	31024	37796
3867	0	31720	31008	37816
3868	0	31708	31008	37812
3869	0	31708	31008	37820
3870	0	31712	31024	37848
3871	0	31720	31016	37880
3872	0	31720	31032	37884
3873	0	31712	31032	37893
3874	0	31720	31048	37896
3875	0	31728	31048	37888
3876	0	31748	31052	37892
3877	0	31756	31048	37912
3878	0	31776	31036	37896
3879	0	31780	31049	37896
3880	0	31800	31048	37872
3881	0	31788	31068	37888
3882	0	31793	31072	37872
3883	0	31816	31064	37872
3884	0	31808	31064	37856
3885	0	31825	31048	37864
3886	0	31836	31052	37832
3887	0	31841	31048	37828
3888	0	31860	31052	37836
3889	0	31864	31052	37812
3890	0	31872	31048	37816
3891	0	31900	31028	37800
3892	0	31904	31044	37804
3893	0	31912	31044	37796
3894	0	31900	31044	37768
3895	0	31904	31045	37752
3896	0	31912	31052	37740
3897	0	31904	31056	37724
3898	0	31916	31060	37740
3899	0	31928	31072	37725
3900	0	31936	31092	37724
3901	0	31944	31092	37716
3902	0	31952	31096	37672
3903	0	31952	31088	37665
3904	0	31960	31092	37652
3905	0	31952	31090	37645
3906	0	31953	31100	37648
3907	0	31964	31108	37636
3908	0	31948	31117	37624
3909	0	31952	31112	37616
3910	0	31944	31100	37604
3911	0	31944	31100	37624
3912	0	31964	31100	37620
3913	0	31952	31100	37620
3914	0	31960	31096	37632
3915	0	31967	31105	37644
3916	0	31952	31112	37648
3917	0	31944	31108	37660
3918	0	31936	31129	37668
3919	0	31940	31112	37672
3920	0	31928	31128	37656
3921	0	31924	31109	37656
3922	0	31916	31116	37648
3923	0	31912	31104	37642
3924	0	31900	31113	37629
3925	0	31888	31104	37613
3926	0	31884	31096	37648
3927	0	31884	31112	37632
3928	0	31880	31097	37624
3929	0	31888	31100	37628
3930	0	31872	31088	37652
3931	0	31856	31068	37628
3932	0	31840	31065	37628
3933	0	31832	31060	37624
3934	0	31816	31052	37632
3935	0	31808	31040	37649
3936	0	31800	31032	37644
3937	0	31784	31028	37648
3938	0	31768	31028	37664
3939	0	31760	31028	37664
3940	0	31760	31012	37672
3941	0	31748	31004	37660
3942	0	31740	30976	37656
3943	0	31756	30972	37648
3944	0	31760	30968	37624
3945	0	31768	30952	37624
3946	0	31748	30957	37600
3947	0	31728	30956	37604
3948	0	31724	30960	37600
3949	0	31720	30964	37572
3950	0	31708	30940	37568
3951	0	31716	30928	37548
3952	0	31716	30936	37536
3953	0	31721	30932	37536
3954	0	31716	30944	37541
3955	0	31720	30940	37520
3956	0	31728	30932	37500
3957	0	31721	30936	37496
3958	0	31740	30928	37472
3959	0	31737	30940	37468
3960	0	31740	30948	37488
3961	0	31760	30944	37484
3962	0	31760	30960	37480
3963	0	31760	30973	37484
3964	0	31772	30972	37488
3965	0	31784	30972	37484
3966	0	31796	30972	37488
3967	0	31805	30964	37484
3968	0	31828	30972	37484
3969	0	31832	30992	37461
3970	0	31864	31000	37472
3971	0	31868	31008	37452
3972	0	31880	31033	37464
3973	0	31888	31048	37460
3974	0	31896	31068	37476
3975	0	31920	31064	37488
3976	0	31936	31084	37500
3977	0	31948	31080	37512
3978	0	31956	31088	37512
3979	0	31976	31092	37540
3980	0	31988	31092	37540
3981	0	32004	31096	37544
3982	0	32028	31100	37552
3983	0	32044	31085	37588
3984	0	32040	31112	37596
3985	0	32040	31108	37604
3986	0	32060	31104	37596
3987	0	32060	31108	37608
3988	0	32056	31104	37604
3989	0	32072	31100	37640
3990	0	32088	31092	37664
3991	0	32092	31096	37684
3992	0	32100	31104	37680
3993	0	32100	31104	37712
3994	0	32112	31100	37744
3995	0	32108	31108	37760
3996	0	32108	31104	37756
3997	0	32100	31120	37760
3998	0	32092	31124	37768
3999	0	32100	31136	37780
4000	0	32088	31133	37800
4001	0	32092	31120	37824
4002	0	32088	31119	37824
4003	0	32092	31108	37832
4004	0	32104	31100	37828
4005	0	32100	31100	37816
4006	0	32092	31100	37809
4007	0	32096	31100	37824
4008	0	32096	31084	37840
4009	0	32096	31086	37832
4010	0	32092	31084	37824
4011	0	32084	31080	37804
4012	0	32076	31084	37816
4013	0	32080	31100	37800
4014	0	32064	31076	37800
4015	0	32040	31085	37804
4016	0	32036	31072	37820
4017	0	32016	31064	37824
4018	0	31996	31052	37820
4019	0	31984	31048	37812
4020	0	31972	31036	37808
4021	0	31976	31020	37784
4022	0	31952	31008	37784
4023	0	31960	31005	37788
4024	0	31944	30996	37780
4025	0	31936	30988	37796
4026	0	31924	31008	37780
4027	0	31916	30988	37768
4028	0	31932	30984	37772
4029	0	31905	30964	37768
4030	0	31896	30972	37776
4031	0	31876	30973	37736
4032	0	31876	30972	37720
4033	0	31864	30964	37720
4034	0	31848	30960	37712
4035	0	31836	30956	37700
4036	0	31820	30944	37704
4037	0	31800	30938	37716
4038	0	31784	30936	37720
4039	0	31784	30932	37708
4040	0	31776	30936	37688
4041	0	31768	30932	37680
4042	0	31768	30921	37664
4043	0	31760	30908	37644
4044	0	31742	30913	37640
4045	0	31736	30912	37624
4046	0	31736	30924	37596
4047	0	31736	30920	37592
4048	0	31748	30908	37584
4049	0	31756	30904	37556
4050	0	31740	30916	37520
4051	0	31720	30912	37520
4052	0	31728	30912	37512
4053	0	31728	30912	37504
4054	0	31732	30908	37500
4055	0	31736	30920	37488
4056	0	31744	30912	37464
4057	0	31744	30924	37460
4058	0	31752	30944	37456
4059	0	31768	30944	37464
4060	0	31784	30936	37472
4061	0	31801	30944	37452
4062	0	31808	30944	37456
4063	0	31832	30960	37428
4064	0	31840	30956	37420
4065	0	31856	30976	37416
4066	0	31868	30984	37436
4067	0	31888	30988	37428
4068	0	31900	31000	37420
4069	0	31920	31004	37408
4070	0	31956	31028	37400
4071	0	31984	31021	37376
4072	0	31992	31048	37377
4073	0	32016	31052	37376
4074	0	32024	31069	37376
4075	0	32048	31084	37384
4076	0	32048	31084	37392
4077	0	32064	31092	37380
4078	0	32076	31096	37384
4079	0	32096	31103	37401
4080	0	32116	31101	37424
4081	0	32132	31102	37428
4082	0	32152	31108	37452
4083	0	32156	31112	37468
4084	0	32176	31129	37472
4085	0	32176	31141	37472
4086	0	32192	31140	37496
4087	0	32176	31144	37516
4088	0	32192	31156	37544
4089	0	32196	31160	37576
4090	0	32192	31176	37600
4091	0	32196	31168	37616
4092	0	32212	31180	37648
4093	0	32216	31172	37676
4094	0	32224	31180	37688
4095	0	32224	31168	37704
4096	0	32224	31172	37720
4097	0	32232	31162	37724
4098	0	32216	31160	37756
4099	0	32220	31162	37796
4100	0	32214	31144	37836
4101	0	32212	31144	37845
4102	0	32212	31132	37864
4103	0	32196	31136	37892
4104	0	32184	31132	37928
4105	0	32168	31120	37952
4106	0	32160	31128	37965
4107	0	32140	31124	37976
4108	0	32136	31108	38004
4109	0	32116	31104	38000
4110	0	32096	31100	38040
4111	0	32104	31076	38048
4112	0	32080	31060	38060
4113	0	32068	31052	38064
4114	0	32053	31044	38072
4115	0	32040	31044	38080
4116	0	32028	31032	38068
4117	0	32024	31012	38044
4118	0	32012	31004	38032
4119	0	32004	30984	38020
4120	0	31992	30980	37996
4121	0	31988	30981	37968
4122	0	31976	30960	37952
4123	0	31972	30944	37960
4124	0	31956	30940	37932
4125	0	31940	30932	37916
4126	0	31936	30924	37888
4127	0	31912	30944	37880
4128	0	31900	30940	37888
4129	0	31896	30944	37872
4130	0	31888	30940	37886
4131	0	31872	30936	37864
4132	0	31872	30924	37864
4133	0	31872	30940	37868
4134	0	31864	30948	37870
4135	0	31868	30944	37844
4136	0	31880	30928	37824
4137	0	31872	30920	37825
4138	0	31868	30920	37796
4139	0	31868	30912	37776
4140	0	31860	30900	37768
4141	0	31848	30908	37733
4142	0	31852	30892	37708
4143	0	31856	30896	37684
4144	0	31848	30892	37668
4145	0	31848	30884	37668
4146	0	31872	30842	37584
4147	0	31916	30832	37533
4148	0	31938	30796	37404
4149	0	31988	30821	37380
4150	0	32020	30824	37348
4151	0	32014	30848	37380
4152	0	32024	30872	37416
4153	0	32008	30877	37480
4154	0	31980	30908	37520
4155	0	31956	30900	37512
4156	0	31984	30920	37528
4157	0	31984	30928	37536
4158	0	31968	30892	37508
4159	0	32000	30928	37536
4160	0	32008	30900	37516
4161	0	32024	30908	37528
4162	0	32040	30996	37564
4163	0	32032	30957	37568
4164	0	32036	30960	37544
4165	0	32044	30928	37537
4166	0	32060	30917	37512
4167	0	32072	30912	37487
4168	0	32104	30960	37464
4169	0	32124	30940	37452
4170	0	32136	30929	37444
4171	0	32165	30936	37456
4172	0	32176	30908	37468
4173	0	32192	30904	37448
4174	0	32200	30944	37436
4175	0	32216	30944	37468
4176	0	32216	30932	37468
4177	0	32224	30928	37460
4178	0	32240	30960	37464
4179	0	32248	30952	37472
4180	0	32240	30952	37468
4181	0	32244	30973	37484
4182	0	32216	31020	37504
4183	0	32232	31004	37500
4184	0	32238	31000	37496
4185	0	32220	31008	37508
4186	0	32220	31000	37504
4187	0	32220	31008	37504
4188	0	32192	30944	37624
4189	0	32004	30904	37760
4190	0	31892	30932	37856
4191	0	31860	30968	37860
4192	0	31848	30968	37808
4193	0	31848	30952	37804
4194	0	31856	30948	37784
4195	0	31792	30976	37800
4196	0	31768	30980	37824
4197	0	31816	30944	37800
4198	0	31872	30916	37756
4199	0	31836	30908	37736
4200	0	31844	30896	37704
4201	0	31841	30896	37680
4202	0	31844	30900	37652
4203	0	31848	30877	37636
4204	0	31872	30864	37632
4205	0	31856	30872	37592
4206	0	31808	30872	37600
4207	0	31768	30880	37584
4208	0	31752	30876	37568
4209	0	31736	30860	37572
4210	0	31728	30856	37556
4211	0	31708	30856	37540
4212	0	31712	30844	37568
4213	0	31740	30816	37560
4214	0	31737	30808	37584
4215	0	31768	30800	37588
4216	0	31760	30788	37616
4217	0	31768	30756	37640
4218	0	31797	30740	37644
4219	0	31824	30740	37652
4220	0	31832	30720	37664
4221	0	31856	30716	37684
4222	0	31880	30704	37704
4223	0	31880	30716	37732
4224	0	31888	30712	37736
4225	0	31904	30700	37772
4226	0	31916	30700	37784
4227	0	31936	30685	37816
4228	0	31924	30696	37836
4229	0	31920	30710	37840
4230	0	31936	30717	37840
4231	0	31920	30736	37856
4232	0	31916	30728	37848
4233	0	31912	30716	37848
4234	0	31928	30736	37832
4235	0	31924	30752	37828
4236	0	31920	30776	37857
4237	0	31916	30784	37880
4238	0	31908	30812	37880
4239	0	31896	30828	37864
4240	0	31892	30840	37892
4241	0	31896	30828	37916
4242	0	31872	30844	37908
4243	0	31888	30848	37881
4244	0	31868	30852	37900
4245	0	31864	30844	37892
4246	0	31872	30852	37860
4247	0	31872	30860	37876
4248	0	31880	30876	37872
4249	0	31872	30896	37868
4250	0	31880	30896	37868
4251	0	31872	30909	37880
4252	0	31853	30900	37864
4253	0	31880	30904	37892
4254	0	31892	30900	37860
4255	0	31904	30893	37848
4256	0	31920	30901	37824
4257	0	31908	30928	37816
4258	0	31920	30940	37824
4259	0	31908	30948	37840
4260	0	31920	30960	37848
4261	0	31920	30956	37844
4262	0	31924	30974	37844
4263	0	31896	31016	37840
4264	0	31896	31016	37832
4265	0	31868	31045	37812
4266	0	31868	31080	37816
4267	0	31880	31064	37808
4268	0	31880	31092	37816
4269	0	31905	31103	37796
4270	0	31916	31100	37796
4271	0	31936	31128	37816
4272	0	31945	31152	37844
4273	0	31968	31144	37844
4274	0	31992	31156	37800
4275	0	31993	31152	37785
4276	0	32016	31160	37824
4277	0	32012	31148	37816
4278	0	32036	31132	37824
4279	0	32060	31124	37844
4280	0	32048	31144	37840
4281	0	32056	31160	37844
4282	0	32076	31144	37848
4283	0	32064	31132	37840
4284	0	32056	31133	37852
4285	0	32056	31128	37872
4286	0	32028	31120	37876
4287	0	32024	31112	37888
4288	0	32020	31108	37888
4289	0	32000	31088	37880
4290	0	31976	31093	37896
4291	0	31960	31092	37924
4292	0	31956	31100	37952
4293	0	31944	31076	37984
4294	0	31936	31056	37992
4295	0	31908	31044	38000
4296	0	31888	31045	38008
4297	0	31868	31020	38016
4298	0	31852	31016	38024
4299	0	31828	30972	38048
4300	0	31812	30940	38048
4301	0	31776	30920	38044
4302	0	31760	30912	38044
4303	0	31732	30904	38056
4304	0	31720	30872	38060
4305	0	31692	30848	38077
4306	0	31656	30856	38072
4307	0	31640	30848	38080
4308	0	31616	30840	38084
4309	0	31604	30822	38080
4310	0	31608	30816	38080
4311	0	31612	30808	38064
4312	0	31592	30796	38076
4313	0	31612	30792	38088
4314	0	31632	30780	38068
4315	0	31652	30776	38080
4316	0	31680	30768	38088
4317	0	31697	30732	38088
4318	0	31712	30716	38076
4319	0	31704	30716	38088
4320	0	31720	30716	38108
4321	0	31705	30726	38136
4322	0	31688	30701	38160
4323	0	31680	30712	38176
4324	0	31648	30744	38148
4325	0	31620	30768	38136
4326	0	31568	30760	38132
4327	0	31560	30776	38148
4328	0	31560	30816	38116
4329	0	31596	30904	38136
4330	0	31932	31384	38116
4331	0	32304	32132	38252
4332	0	31536	31160	38112
4333	0	31396	30956	37972
4334	0	31388	30916	37896
4335	0	31356	30912	37860
4336	0	31352	30872	37840
4337	0	31416	30884	37792
4338	0	31452	30829	37752
4339	0	31464	30804	37748
4340	0	31464	30852	37744
4341	0	31508	30896	37648
4342	0	31528	30937	37624
4343	0	31532	30940	37676
4344	0	31584	30945	37684
4345	0	31604	31004	37712
4346	0	31684	31004	37600
4347	0	31720	31000	37536
4348	0	31824	31076	37564
4349	0	31928	31088	37472
4350	0	32288	30980	37052
4351	0	32552	28497	35144
4352	0	32996	29760	37312
4353	0	32884	30956	37884
4354	0	32632	31416	37872
4355	0	32488	31608	37756
4356	0	32376	31648	37636
4357	0	32292	31644	37488
4358	0	32256	31612	37412
4359	0	32208	31532	37404
4360	0	32176	31400	37368
4361	0	32068	31312	37372
4362	0	31944	31232	37376
4363	0	31856	31152	37417
4364	0	31804	31096	37444
4365	0	31788	31020	37504
4366	0	31804	30924	37588
4367	0	31828	30845	37628
4368	0	31860	30756	37676
4369	0	31896	30688	37752
4370	0	31912	30632	37789
4371	0	31944	30565	37848
4372	0	31968	30549	37864
4373	0	32008	30520	37912
4374	0	32052	30496	37964
4375	0	32088	30460	38000
4376	0	32132	30428	38060
4377	0	32152	30409	38072
4378	0	32192	30370	38104
4379	0	32216	30328	38140
4380	0	32232	30284	38160
4381	0	32248	30246	38200
4382	0	32284	30192	38216
4383	0	32292	30120	38260
4384	0	32308	30064	38336
4385	0	32300	29956	38356
4386	0	32265	29888	38352
4387	0	32240	29836	38384
4388	0	32220	29812	38432
4389	0	32200	29781	38444
4390	0	32168	29752	38460
4391	0	32160	29724	38468
4392	0	32148	29697	38480
4393	0	32120	29679	38480
4394	0	32100	29668	38452
4395	0	32108	29676	38464
4396	0	32120	29716	38460
4397	0	32120	29729	38461
4398	0	32144	29768	38440
4399	0	32164	29788	38440
4400	0	32172	29820	38416
4401	0	32168	29832	38384
4402	0	32164	29876	38360
4403	0	32160	29900	38344
4404	0	32148	29912	38324
4405	0	31964	29936	38188
4406	0	31772	29988	38136
4407	0	31652	30065	38200
4408	0	31560	30124	38256
4409	0	31552	30109	38244
4410	0	31520	30180	38288
4411	0	31496	30098	38104
4412	0	31388	30168	38196
4413	0	31424	30216	38072
4414	0	31332	30256	38020
4415	0	31309	30329	37894
4416	0	31328	30456	37976
4417	0	31412	30501	37852
4418	0	31480	30588	37784
4419	0	31464	30632	37616
4420	0	31568	30772	37656
4421	0	31588	30776	37496
4422	0	31616	30892	37496
4423	0	31760	30952	37440
4424	0	31776	30916	37392
4425	0	31904	30993	37396
4426	0	31860	30980	37252
4427	0	31880	30968	37260
4428	0	32004	30945	37224
4429	0	32060	30956	37272
4430	0	32200	30992	37164
4431	0	32188	30933	37152
4432	0	32280	30912	37176
4433	0	32408	30868	37180
4434	0	32440	30794	37140
4435	0	32476	30808	36976
4436	0	32484	30804	36968
4437	0	32472	30761	36944
4438	0	32552	30744	36964
4439	0	32640	30736	36964
4440	0	32704	30692	36940
4441	0	32768	30668	36909
4442	0	32776	30660	36848
4443	0	32756	30664	36792
4444	0	32772	30696	36788
4445	0	32768	30672	36756
4446	0	32744	30656	36720
4447	0	32772	30640	36728
4448	0	32756	30620	36700
4449	0	32752	30568	36720
4450	0	32752	30517	36728
4451	0	32696	30480	36720
4452	0	32676	30460	36756
4453	0	32724	30428	36816
4454	0	32728	30378	36828
4455	0	32704	30332	36824
4456	0	32680	30316	36860
4457	0	32664	30296	36908
4458	0	32660	30268	36924
4459	0	32664	30236	36972
4460	0	32696	30206	37000
4461	0	32720	30164	37036
4462	0	32760	30120	37052
4463	0	32780	30072	37069
4464	0	32824	30028	37104
4465	0	32848	29976	37116
4466	0	32880	29928	37160
4467	0	32912	29896	37180
4468	0	32920	29836	37224
4469	0	32928	29780	37261
4470	0	32948	29736	37308
4471	0	32960	29704	37328
4472	0	32976	29652	37368
4473	0	32976	29586	37400
4474	0	32960	29568	37432
4475	0	32960	29552	37440
4476	0	32944	29505	37468
4477	0	32936	29492	37469
4478	0	32916	29480	37508
4479	0	32884	29472	37544
4480	0	32856	29468	37544
4481	0	32836	29456	37560
4482	0	32812	29456	37600
4483	0	32788	29456	37588
4484	0	32776	29436	37588
4485	0	32756	29444	37612
4486	0	32728	29440	37596
4487	0	32712	29456	37608
4488	0	32708	29460	37596
4489	0	32700	29452	37588
4490	0	32696	29464	37596
4491	0	32688	29472	37596
4492	0	32692	29476	37588
4493	0	32700	29488	37568
4494	0	32692	29528	37536
4495	0	32692	29568	37516
4496	0	32676	29596	37492
4497	0	32656	29612	37488
4498	0	32624	29660	37476
4499	0	32592	29696	37452
4500	0	32556	29740	37421
4501	0	32505	29788	37400
4502	0	32480	29857	37400
4503	0	32440	29920	37353
4504	0	32416	29985	37284
4505	0	32397	30044	37252
4506	0	32376	30108	37204
4507	0	32361	30168	37192
4508	0	32345	30204	37164
4509	0	32324	30220	37104
4510	0	32320	30260	37089
4511	0	32320	30272	37080
4512	0	32332	30288	37040
4513	0	32360	30272	37004
4514	0	32368	30280	36976
4515	0	32400	30284	36944
4516	0	32408	30284	36928
4517	0	32424	30292	36908
4518	0	32432	30312	36864
4519	0	32448	30308	36836
4520	0	32468	30320	36816
4521	0	32468	30320	36800
4522	0	32480	30328	36824
4523	0	32496	30328	36792
4524	0	32508	30337	36764
4525	0	32516	30325	36780
4526	0	32536	30316	36804
4527	0	32544	30316	36808
4528	0	32568	30312	36788
4529	0	32584	30272	36824
4530	0	32600	30216	36800
4531	0	32608	30200	36808
4532	0	32620	30190	36804
4533	0	32640	30169	36784
4534	0	32656	30141	36796
4535	0	32660	30120	36804
4536	0	32664	30092	36824
4537	0	32680	30076	36820
4538	0	32680	30056	36852
4539	0	32688	30040	36856
4540	0	32688	30020	36856
4541	0	32712	30020	36848
4542	0	32712	30040	36864
4543	0	32716	30024	36861
4544	0	32708	30028	36852
4545	0	32712	30029	36852
4546	0	32752	30044	36856
4547	0	32788	30052	36865
4548	0	32816	30056	36840
4549	0	32828	30048	36820
4550	0	32836	30048	36796
4551	0	32840	30036	36776
4552	0	32852	30020	36760
4553	0	32856	29996	36760
4554	0	32880	29972	36752
4555	0	32876	29940	36752
4556	0	32888	29900	36744
4557	0	32892	29860	36752
4558	0	32888	29820	36748
4559	0	32912	29789	36764
4560	0	32920	29756	36752
4561	0	32936	29728	36780
4562	0	32928	29704	36780
4563	0	32944	29668	36796
4564	0	32960	29660	36808
4565	0	32964	29625	36808
4566	0	32964	29592	36824
4567	0	32980	29599	36852
4568	0	32988	29568	36888
4569	0	32980	29536	36892
4570	0	32984	29528	36911
4571	0	32976	29502	36920
4572	0	32960	29500	36944
4573	0	32944	29484	36968
4574	0	32920	29464	36984
4575	0	32904	29448	36984
4576	0	32908	29428	36988
4577	0	32884	29428	37004
4578	0	32892	29452	37024
4579	0	32868	29477	37040
4580	0	32824	29504	37044
4581	0	32776	29528	37056
4582	0	32716	29556	37072
4583	0	32664	29608	37060
4584	0	32617	29644	37048
4585	0	32568	29656	37044
4586	0	32516	29664	37029
4587	0	32460	29692	37016
4588	0	32440	29716	37020
4589	0	32400	29736	36960
4590	0	32376	29778	36932
4591	0	32352	29812	36912
4592	0	32324	29836	36864
4593	0	32308	29896	36824
4594	0	32296	29944	36820
4595	0	32292	29976	36792
4596	0	32292	30020	36768
4597	0	32304	30064	36760
4598	0	32320	30100	36717
4599	0	32328	30132	36676
4600	0	32332	30156	36648
4601	0	32360	30176	36636
4602	0	32360	30176	36620
4603	0	32368	30196	36608
4604	0	32388	30192	36584
4605	0	32412	30176	36580
4606	0	32436	30164	36572
4607	0	32440	30164	36576
4608	0	32448	30140	36576
4609	0	32456	30128	36572
4610	0	32473	30120	36572
4611	0	32476	30093	36564
4612	0	32472	30088	36584
4613	0	32492	30068	36600
4614	0	32504	30036	36624
4615	0	32512	30024	36612
4616	0	32520	30004	36640
4617	0	32544	30008	36656
4618	0	32552	29981	36656
4619	0	32554	29976	36672
4620	0	32573	29974	36692
4621	0	32580	29968	36696
4622	0	32568	29984	36688
4623	0	32576	29956	36704
4624	0	32592	29932	36712
4625	0	32600	29908	36756
4626	0	32604	29896	36764
4627	0	32600	29912	36788
4628	0	32604	29892	36784
4629	0	32624	29868	36808
4630	0	32616	29876	36824
4631	0	32616	29840	36820
4632	0	32604	29832	36840
4633	0	32580	29828	36849
4634	0	32564	29792	36884
4635	0	32540	29761	36900
4636	0	32520	29736	36921
4637	0	32504	29716	36944
4638	0	32496	29692	36936
4639	0	32492	29681	36952
4640	0	32508	29672	36976
4641	0	32528	29660	36992
4642	0	32556	29652	36992
4643	0	32572	29664	37000
4644	0	32596	29665	37020
4645	0	32612	29660	36992
4646	0	32660	29652	36984
4647	0	32688	29663	37000
4648	0	32696	29672	36996
4649	0	32724	29630	36988
4650	0	32756	29612	36988
4651	0	32784	29592	37000
4652	0	32800	29576	37016
4653	0	32816	29544	37000
4654	0	32848	29524	36996
4655	0	32872	29496	36992
4656	0	32896	29472	37004
4657	0	32900	29448	37001
4658	0	32900	29432	36988
4659	0	32896	29424	36988
4660	0	32904	29420	36968
4661	0	32884	29416	36976
4662	0	32880	29420	36984
4663	0	32856	29428	37004
4664	0	32832	29421	36960
4665	0	32824	29408	36957
4666	0	32800	29412	36952
4667	0	32788	29404	36984
4668	0	32792	29416	36960
4669	0	32768	29424	36980
4670	0	32744	29412	36992
4671	0	32744	29404	37008
4672	0	32736	29420	37020
4673	0	32732	29432	37024
4674	0	32724	29408	37032
4675	0	32712	29400	37040
4676	0	32688	29404	37052
4677	0	32648	29412	37076
4678	0	32608	29417	37064
4679	0	32544	29426	37076
4680	0	32500	29436	37100
4681	0	32444	29456	37120
4682	0	32388	29480	37144
4683	0	32336	29504	37124
4684	0	32284	29536	37120
4685	0	32224	29544	37144
4686	0	32127	29805	37096
4687	0	32120	29871	37180
4688	0	32212	29864	37356
4689	0	32240	29857	37208
4690	0	32184	29896	37128
4691	0	32088	29872	37096
4692	0	32036	29832	37092
4693	0	32040	29840	37120
4694	0	32080	29816	37144
4695	0	32096	29800	37128
4696	0	32100	29680	37100
4697	0	32104	29692	37104
4698	0	32116	29670	37096
4699	0	32140	29644	37104
4700	0	32173	29625	37096
4701	0	32208	29598	37096
4702	0	32268	29572	37088
4703	0	32320	29558	37088
4704	0	32380	29544	37100
4705	0	32440	29580	37080
4706	0	32496	29561	37076
4707	0	32540	29592	37048
4708	0	32588	29561	37044
4709	0	32628	29572	37028
4710	0	32648	29588	37028
4711	0	32668	29588	37024
4712	0	32684	29588	37016
4713	0	32696	29556	36988
4714	0	32712	29584	36988
4715	0	32716	29564	37021
4716	0	32696	29565	37004
4717	0	32688	29524	36993
4718	0	32672	29504	37016
4719	0	32656	29512	37004
4720	0	32664	29504	37020
4721	0	32656	29480	37000
4722	0	32652	29490	36996
4723	0	32664	29484	37020
4724	0	32620	29476	36988
4725	0	32612	29484	36956
4726	0	32648	29512	36917
4727	0	32696	29516	36884
4728	0	32724	29500	36872
4729	0	32764	29520	36880
4730	0	32804	29544	36873
4731	0	32832	29556	36872
4732	0	32864	29580	36872
4733	0	32896	29560	36872
4734	0	32912	29544	36848
4735	0	32952	29540	36828
4736	0	32992	29524	36808
4737	0	33008	29496	36821
4738	0	33032	29473	36816
4739	0	33048	29452	36808
4740	0	33064	29416	36796
4741	0	33072	29392	36788
4742	0	33080	29364	36792
4743	0	33072	29360	36781
4744	0	33076	29348	36768
4745	0	33088	29328	36772
4746	0	33084	29320	36781
4747	0	33088	29308	36768
4748	0	33080	29300	36744
4749	0	33060	29308	36736
4750	0	33068	29320	36736
4751	0	33056	29304	36736
4752	0	33056	29320	36728
4753	0	33040	29316	36721
4754	0	33032	29308	36745
4755	0	33040	29304	36734
4756	0	33040	29312	36756
4757	0	33033	29312	36748
4758	0	33020	29312	36744
4759	0	33008	29296	36732
4760	0	33012	29279	36732
4761	0	32996	29281	36740
4762	0	32984	29277	36748
4763	0	32968	29274	36764
4764	0	32936	29296	36772
4765	0	32920	29308	36764
4766	0	32896	29312	36768
4767	0	32848	29336	36772
4768	0	32808	29373	36784
4769	0	32752	29420	36792
4770	0	32720	29404	36812
4771	0	32708	29381	36816
4772	0	32684	29384	36864
4773	0	32624	29484	36900
4774	0	32520	29685	36928
4775	0	32436	29728	36952
4776	0	32476	29508	36957
4777	0	32513	29361	36976
4778	0	32560	29292	36984
4779	0	32592	29220	36952
4780	0	32624	29204	36929
4781	0	32672	29160	36864
4782	0	32696	29196	36828
4783	0	32720	29212	36793
4784	0	32744	29260	36752
4785	0	32764	29288	36724
4786	0	32768	29352	36716
4787	0	32776	29386	36660
4788	0	32784	29400	36632
4789	0	32800	29424	36612
4790	0	32824	29416	36612
4791	0	32852	29392	36604
4792	0	32876	29404	36596
4793	0	32888	29412	36592
4794	0	32916	29360	36588
4795	0	32932	29336	36592
4796	0	32956	29328	36588
4797	0	32976	29343	36600
4798	0	32976	29376	36583
4799	0	32980	29320	36576
4800	0	33016	29289	36568
4801	0	33036	29284	36568
4802	0	33048	29277	36548
4803	0	33045	29260	36520
4804	0	33040	29296	36488
4805	0	33040	29349	36460
4806	0	33048	29316	36452
4807	0	33064	29300	36476
4808	0	33080	29304	36456
4809	0	33100	29316	36436
4810	0	33124	29316	36388
4811	0	33148	29310	36384
4812	0	33184	29280	36376
4813	0	33224	29213	36364
4814	0	33239	29192	36352
4815	0	33268	29156	36336
4816	0	33304	29112	36336
4817	0	33312	29104	36328
4818	0	33322	29080	36312
4819	0	33320	29076	36308
4820	0	33324	29048	36320
